,Unnamed: 0,trial,stimulus,prime,prime_affect,word,word_affect,responsetime,accuracy
0,0,1,38,NH1,negative,payday,positive,849,1
1,1,2,61,NL2,negative,relax,positive,753,1
2,2,3,29,PL2,positive,morgue,negative,761,1
3,3,4,23,PL1,positive,fatal,negative,767,1
4,4,5,60,NL2,negative,arrest,negative,803,1
5,5,6,63,NL2,negative,excite,positive,742,1
6,6,7,37,NH1,negative,excite,positive,682,1
7,7,8,13,PH2,positive,fatal,negative,982,1
8,8,9,3,PH1,positive,relax,positive,662,1
9,9,10,43,NH2,negative,morgue,negative,600,1
10,10,11,16,PH2,positive,dismal,negative,665,1
11,11,12,12,PH2,positive,comfy,positive,783,1
12,12,13,5,PH1,positive,fatal,negative,626,1
13,13,14,10,PH2,positive,payday,positive,996,1
14,14,15,50,NL1,negative,dismal,negative,757,1
15,15,16,35,NH1,negative,morgue,negative,475,2
16,16,17,11,PH2,positive,relax,positive,786,1
17,17,18,8,PH1,positive,dismal,negative,629,1
18,18,19,26,PL2,positive,comfy,positive,660,1
19,19,20,51,NL1,negative,fatal,negative,711,1
20,20,21,24,PL1,positive,arrest,negative,875,1
21,21,22,64,NL2,negative,payday,positive,608,1
22,22,23,32,PL2,positive,arrest,negative,699,1
23,23,24,46,NH2,negative,payday,positive,574,1
24,24,25,22,PL1,positive,dismal,negative,589,1
25,25,26,57,NL2,negative,morgue,negative,818,1
26,26,27,52,NL1,negative,arrest,negative,615,1
27,27,28,15,PH2,positive,morgue,negative,810,1
28,28,29,1,PH1,positive,excite,positive,989,1
29,29,30,6,PH1,positive,arrest,negative,539,1
30,30,31,40,NH1,negative,comfy,positive,626,1
31,31,32,45,NH2,negative,excite,positive,728,1
32,32,33,58,NL2,negative,dismal,negative,608,1
33,33,34,18,PL1,positive,comfy,positive,578,1
34,34,35,49,NL1,negative,morgue,negative,624,1
35,35,36,20,PL1,positive,payday,positive,729,1
36,36,37,17,PL1,positive,relax,positive,477,1
37,37,38,62,NL2,negative,comfy,positive,577,1
38,38,39,9,PH2,positive,excite,positive,758,1
39,39,40,39,NH1,negative,relax,positive,618,1
40,40,41,42,NH2,negative,arrest,negative,743,1
41,41,42,27,PL2,positive,excite,positive,680,1
42,42,43,2,PH1,positive,payday,positive,916,1
43,43,44,59,NL2,negative,fatal,negative,645,1
44,44,45,47,NH2,negative,relax,positive,606,1
45,45,46,4,PH1,positive,comfy,positive,609,1
46,46,47,56,NL1,negative,payday,positive,539,1
47,47,48,54,NL1,negative,comfy,positive,596,1
48,48,49,34,NH1,negative,arrest,negative,652,1
49,49,50,21,PL1,positive,morgue,negative,584,1
50,50,51,31,PL2,positive,fatal,negative,635,1
51,51,52,19,PL1,positive,excite,positive,578,1
52,52,53,53,NL1,negative,relax,positive,542,1
53,53,54,55,NL1,negative,excite,positive,560,1
54,54,55,28,PL2,positive,payday,positive,617,1
55,55,56,30,PL2,positive,dismal,negative,636,1
56,56,57,48,NH2,negative,comfy,positive,704,1
57,57,58,14,PH2,positive,arrest,negative,553,1
58,58,59,7,PH1,positive,morgue,negative,620,1
59,59,60,41,NH2,negative,fatal,negative,555,1
60,60,61,33,NH1,negative,fatal,negative,539,1
61,61,62,36,NH1,negative,dismal,negative,418,1
62,62,63,3,PH1,positive,relax,positive,522,1
63,63,64,48,NH2,negative,comfy,positive,457,1
64,64,65,17,PL1,positive,relax,positive,505,1
65,65,66,23,PL1,positive,fatal,negative,551,1
66,66,67,40,NH1,negative,comfy,positive,392,1
67,67,68,11,PH2,positive,relax,positive,362,1
68,68,69,27,PL2,positive,excite,positive,333,1
69,69,70,14,PH2,positive,arrest,negative,274,2
70,70,71,61,NL2,negative,relax,positive,536,1
71,71,72,55,NL1,negative,excite,positive,426,1
72,72,73,58,NL2,negative,dismal,negative,448,1
73,73,74,60,NL2,negative,arrest,negative,537,1
74,74,75,53,NL1,negative,relax,positive,510,1
75,75,76,43,NH2,negative,morgue,negative,492,1
76,76,77,24,PL1,positive,arrest,negative,443,1
77,77,78,45,NH2,negative,excite,positive,465,1
78,78,79,5,PH1,positive,fatal,negative,455,1
79,79,80,49,NL1,negative,morgue,negative,432,1
80,80,81,20,PL1,positive,payday,positive,391,1
81,81,82,37,NH1,negative,excite,positive,463,1
82,82,83,35,NH1,negative,morgue,negative,449,1
83,83,84,15,PH2,positive,morgue,negative,300,2
84,84,85,64,NL2,negative,payday,positive,486,1
85,85,86,63,NL2,negative,excite,positive,465,2
86,86,87,56,NL1,negative,payday,positive,512,1
87,87,88,50,NL1,negative,dismal,negative,565,1
88,88,89,7,PH1,positive,morgue,negative,535,1
89,89,90,34,NH1,negative,arrest,negative,459,1
90,90,91,39,NH1,negative,relax,positive,499,1
91,91,92,47,NH2,negative,relax,positive,421,1
92,92,93,29,PL2,positive,morgue,negative,510,1
93,93,94,9,PH2,positive,excite,positive,421,1
94,94,95,12,PH2,positive,comfy,positive,467,1
95,95,96,25,PL2,positive,relax,positive,475,1
96,96,97,6,PH1,positive,arrest,negative,540,1
97,97,98,22,PL1,positive,dismal,negative,531,1
98,98,99,13,PH2,positive,fatal,negative,522,1
99,99,100,44,NH2,negative,dismal,negative,482,1
100,100,101,18,PL1,positive,comfy,positive,507,1
101,101,102,2,PH1,positive,payday,positive,489,1
102,102,103,4,PH1,positive,comfy,positive,479,1
103,103,104,21,PL1,positive,morgue,negative,480,1
104,104,105,54,NL1,negative,comfy,positive,476,1
105,105,106,38,NH1,negative,payday,positive,442,1
106,106,107,42,NH2,negative,arrest,negative,496,1
107,107,108,46,NH2,negative,payday,positive,541,1
108,108,109,33,NH1,negative,fatal,negative,443,1
109,109,110,52,NL1,negative,arrest,negative,400,1
110,110,111,59,NL2,negative,fatal,negative,394,1
111,111,112,62,NL2,negative,comfy,positive,425,1
112,112,113,1,PH1,positive,excite,positive,482,1
113,113,114,26,PL2,positive,comfy,positive,496,1
114,114,115,16,PH2,positive,dismal,negative,494,1
115,115,116,51,NL1,negative,fatal,negative,462,1
116,116,117,19,PL1,positive,excite,positive,506,1
117,117,118,32,PL2,positive,arrest,negative,461,1
118,118,119,31,PL2,positive,fatal,negative,434,1
119,119,120,41,NH2,negative,fatal,negative,414,1
120,120,121,30,PL2,positive,dismal,negative,486,1
121,121,122,41,NH2,negative,fatal,negative,910,1
122,122,123,57,NL2,negative,morgue,negative,1059,1
123,123,124,62,NL2,negative,comfy,positive,1055,1
124,124,125,37,NH1,negative,excite,positive,1088,1
125,125,126,23,PL1,positive,fatal,negative,661,1
126,126,127,10,PH2,positive,payday,positive,820,1
127,127,128,24,PL1,positive,arrest,negative,1075,1
128,128,129,30,PL2,positive,dismal,negative,1114,1
129,129,130,5,PH1,positive,fatal,negative,711,1
130,130,131,20,PL1,positive,payday,positive,921,1
131,131,132,61,NL2,negative,relax,positive,890,1
132,132,133,64,NL2,negative,payday,positive,926,1
133,133,134,2,PH1,positive,payday,positive,653,1
134,134,135,58,NL2,negative,dismal,negative,715,1
135,135,136,7,PH1,positive,morgue,negative,741,1
136,136,137,35,NH1,negative,morgue,negative,801,1
137,137,138,21,PL1,positive,morgue,negative,673,1
138,138,139,50,NL1,negative,dismal,negative,668,1
139,139,140,60,NL2,negative,arrest,negative,638,1
140,140,141,52,NL1,negative,arrest,negative,478,1
141,141,142,13,PH2,positive,fatal,negative,886,1
142,142,143,54,NL1,negative,comfy,positive,747,1
143,143,144,38,NH1,negative,payday,positive,634,1
144,144,145,17,PL1,positive,relax,positive,1077,1
145,145,146,55,NL1,negative,excite,positive,676,1
146,146,147,22,PL1,positive,dismal,negative,581,1
147,147,148,39,NH1,negative,relax,positive,1101,1
148,148,149,34,NH1,negative,arrest,negative,685,1
149,149,150,28,PL2,positive,payday,positive,578,1
150,150,151,31,PL2,positive,fatal,negative,522,1
151,151,152,33,NH1,negative,fatal,negative,587,1
152,152,153,14,PH2,positive,arrest,negative,592,1
153,153,154,32,PL2,positive,arrest,negative,468,1
154,154,155,19,PL1,positive,excite,positive,789,1
155,155,156,12,PH2,positive,comfy,positive,851,1
156,156,157,49,NL1,negative,morgue,negative,548,1
157,157,158,56,NL1,negative,payday,positive,496,1
158,158,159,44,NH2,negative,dismal,negative,577,1
159,159,160,27,PL2,positive,excite,positive,565,1
160,160,161,26,PL2,positive,comfy,positive,605,1
161,161,162,36,NH1,negative,dismal,negative,679,1
162,162,163,8,PH1,positive,dismal,negative,540,1
163,163,164,51,NL1,negative,fatal,negative,664,1
164,164,165,11,PH2,positive,relax,positive,570,1
165,165,166,42,NH2,negative,arrest,negative,620,1
166,166,167,1,PH1,positive,excite,positive,627,1
167,167,168,46,NH2,negative,payday,positive,544,1
168,168,169,63,NL2,negative,excite,positive,502,1
169,169,170,59,NL2,negative,fatal,negative,921,1
170,170,171,16,PH2,positive,dismal,negative,885,1
171,171,172,29,PL2,positive,morgue,negative,594,1
172,172,173,45,NH2,negative,excite,positive,577,1
173,173,174,18,PL1,positive,comfy,positive,798,1
174,174,175,4,PH1,positive,comfy,positive,452,1
175,175,176,53,NL1,negative,relax,positive,748,1
176,176,177,43,NH2,negative,morgue,negative,532,1
177,177,178,9,PH2,positive,excite,positive,551,1
178,178,179,6,PH1,positive,arrest,negative,658,1
179,179,180,25,PL2,positive,relax,positive,637,1
180,180,181,3,PH1,positive,relax,positive,433,1
181,181,182,54,NL1,negative,comfy,positive,652,1
182,182,183,24,PL1,positive,arrest,negative,801,1
183,183,184,53,NL1,negative,relax,positive,603,1
184,184,185,34,NH1,negative,arrest,negative,711,1
185,185,186,14,PH2,positive,arrest,negative,580,1
186,186,187,20,PL1,positive,payday,positive,654,1
187,187,188,29,PL2,positive,morgue,negative,778,1
188,188,189,25,PL2,positive,relax,positive,597,1
189,189,190,33,NH1,negative,fatal,negative,567,1
190,190,191,6,PH1,positive,arrest,negative,835,1
191,191,192,10,PH2,positive,payday,positive,618,1
192,192,193,21,PL1,positive,morgue,negative,638,1
193,193,194,43,NH2,negative,morgue,negative,608,1
194,194,195,16,PH2,positive,dismal,negative,727,1
195,195,196,52,NL1,negative,arrest,negative,624,1
196,196,197,9,PH2,positive,excite,positive,750,1
197,197,198,41,NH2,negative,fatal,negative,566,1
198,198,199,11,PH2,positive,relax,positive,596,1
199,199,200,56,NL1,negative,payday,positive,505,1
200,200,201,42,NH2,negative,arrest,negative,586,1
201,201,202,47,NH2,negative,relax,positive,746,1
202,202,203,8,PH1,positive,dismal,negative,572,1
203,203,204,13,PH2,positive,fatal,negative,728,1
204,204,205,61,NL2,negative,relax,positive,692,1
205,205,206,17,PL1,positive,relax,positive,578,1
206,206,207,50,NL1,negative,dismal,negative,681,1
207,207,208,27,PL2,positive,excite,positive,570,1
208,208,209,1,PH1,positive,excite,positive,561,1
209,209,210,55,NL1,negative,excite,positive,596,1
210,210,211,2,PH1,positive,payday,positive,758,1
211,211,212,62,NL2,negative,comfy,positive,697,1
212,212,213,18,PL1,positive,comfy,positive,623,1
213,213,214,45,NH2,negative,excite,positive,688,1
214,214,215,19,PL1,positive,excite,positive,524,1
215,215,216,22,PL1,positive,dismal,negative,629,1
216,216,217,39,NH1,negative,relax,positive,571,1
217,217,218,32,PL2,positive,arrest,negative,807,1
218,218,219,26,PL2,positive,comfy,positive,587,1
219,219,220,63,NL2,negative,excite,positive,614,1
220,220,221,59,NL2,negative,fatal,negative,686,1
221,221,222,64,NL2,negative,payday,positive,683,1
222,222,223,23,PL1,positive,fatal,negative,700,1
223,223,224,4,PH1,positive,comfy,positive,608,1
224,224,225,7,PH1,positive,morgue,negative,668,1
225,225,226,46,NH2,negative,payday,positive,656,1
226,226,227,35,NH1,negative,morgue,negative,658,1
227,227,228,57,NL2,negative,morgue,negative,693,1
228,228,229,28,PL2,positive,payday,positive,580,1
229,229,230,48,NH2,negative,comfy,positive,635,1
230,230,231,38,NH1,negative,payday,positive,625,1
231,231,232,58,NL2,negative,dismal,negative,748,1
232,232,233,30,PL2,positive,dismal,negative,751,1
233,233,234,40,NH1,negative,comfy,positive,571,1
234,234,235,15,PH2,positive,morgue,negative,660,1
235,235,236,12,PH2,positive,comfy,positive,676,1
236,236,237,51,NL1,negative,fatal,negative,628,1
237,237,238,31,PL2,positive,fatal,negative,708,1
238,238,239,49,NL1,negative,morgue,negative,638,1
239,239,240,44,NH2,negative,dismal,negative,792,1
240,240,241,3,PH1,positive,relax,positive,629,1
241,241,242,13,PH2,positive,fatal,negative,605,1
242,242,243,57,NL2,negative,morgue,negative,584,1
243,243,244,50,NL1,negative,dismal,negative,547,1
244,244,245,27,PL2,positive,excite,positive,493,1
245,245,246,14,PH2,positive,arrest,negative,563,1
246,246,247,7,PH1,positive,morgue,negative,644,1
247,247,248,33,NH1,negative,fatal,negative,603,1
248,248,249,34,NH1,negative,arrest,negative,479,1
249,249,250,11,PH2,positive,relax,positive,501,1
250,250,251,1,PH1,positive,excite,positive,847,1
251,251,252,17,PL1,positive,relax,positive,622,1
252,252,253,52,NL1,negative,arrest,negative,505,1
253,253,254,5,PH1,positive,fatal,negative,522,1
254,254,255,35,NH1,negative,morgue,negative,588,1
255,255,256,64,NL2,negative,payday,positive,901,1
256,256,257,28,PL2,positive,payday,positive,748,1
257,257,258,53,NL1,negative,relax,positive,896,1
258,258,259,59,NL2,negative,fatal,negative,415,1
259,259,260,54,NL1,negative,comfy,positive,606,2
260,260,261,24,PL1,positive,arrest,negative,712,1
261,261,262,29,PL2,positive,morgue,negative,684,1
262,262,263,20,PL1,positive,payday,positive,605,1
263,263,264,18,PL1,positive,comfy,positive,768,1
264,264,265,60,NL2,negative,arrest,negative,589,1
265,265,266,43,NH2,negative,morgue,negative,592,1
266,266,267,21,PL1,positive,morgue,negative,671,1
267,267,268,36,NH1,negative,dismal,negative,984,1
268,268,269,16,PH2,positive,dismal,negative,593,1
269,269,270,19,PL1,positive,excite,positive,705,1
270,270,271,12,PH2,positive,comfy,positive,550,1
271,271,272,37,NH1,negative,excite,positive,480,1
272,272,273,45,NH2,negative,excite,positive,543,1
273,273,274,63,NL2,negative,excite,positive,1073,1
274,274,275,25,PL2,positive,relax,positive,787,1
275,275,276,38,NH1,negative,payday,positive,590,1
276,276,277,2,PH1,positive,payday,positive,472,1
277,277,278,47,NH2,negative,relax,positive,629,1
278,278,279,23,PL1,positive,fatal,negative,1388,1
279,279,280,51,NL1,negative,fatal,negative,919,1
280,280,281,42,NH2,negative,arrest,negative,540,1
281,281,282,26,PL2,positive,comfy,positive,670,1
282,282,283,48,NH2,negative,comfy,positive,659,1
283,283,284,10,PH2,positive,payday,positive,583,1
284,284,285,32,PL2,positive,arrest,negative,890,1
285,285,286,55,NL1,negative,excite,positive,754,2
286,286,287,40,NH1,negative,comfy,positive,936,1
287,287,288,56,NL1,negative,payday,positive,1444,1
288,288,289,41,NH2,negative,fatal,negative,1025,1
289,289,290,9,PH2,positive,excite,positive,867,1
290,290,291,44,NH2,negative,dismal,negative,920,1
291,291,292,4,PH1,positive,comfy,positive,652,1
292,292,293,61,NL2,negative,relax,positive,765,1
293,293,294,8,PH1,positive,dismal,negative,1299,1
294,294,295,6,PH1,positive,arrest,negative,739,1
295,295,296,30,PL2,positive,dismal,negative,996,1
296,296,297,31,PL2,positive,fatal,negative,508,1
297,297,298,28,PL2,positive,payday,positive,681,1
298,298,299,61,NL2,negative,relax,positive,624,1
299,299,300,21,PL1,positive,morgue,negative,670,1
300,300,301,22,PL1,positive,dismal,negative,527,1
301,301,302,13,PH2,positive,fatal,negative,617,1
302,302,303,58,NL2,negative,dismal,negative,526,1
303,303,304,39,NH1,negative,relax,positive,560,1
304,304,305,40,NH1,negative,comfy,positive,672,1
305,305,306,1,PH1,positive,excite,positive,524,1
306,306,307,44,NH2,negative,dismal,negative,611,1
307,307,308,17,PL1,positive,relax,positive,576,1
308,308,309,6,PH1,positive,arrest,negative,519,1
309,309,310,32,PL2,positive,arrest,negative,395,1
310,310,311,12,PH2,positive,comfy,positive,435,1
311,311,312,20,PL1,positive,payday,positive,507,1
312,312,313,49,NL1,negative,morgue,negative,508,1
313,313,314,48,NH2,negative,comfy,positive,487,1
314,314,315,16,PH2,positive,dismal,negative,530,1
315,315,316,7,PH1,positive,morgue,negative,587,1
316,316,317,36,NH1,negative,dismal,negative,498,1
317,317,318,64,NL2,negative,payday,positive,548,1
318,318,319,14,PH2,positive,arrest,negative,491,1
319,319,320,63,NL2,negative,excite,positive,485,1
320,320,321,3,PH1,positive,relax,positive,558,1
321,321,322,2,PH1,positive,payday,positive,493,1
322,322,323,55,NL1,negative,excite,positive,487,1
323,323,324,56,NL1,negative,payday,positive,482,1
324,324,325,46,NH2,negative,payday,positive,507,1
325,325,326,51,NL1,negative,fatal,negative,464,1
326,326,327,41,NH2,negative,fatal,negative,409,1
327,327,328,15,PH2,positive,morgue,negative,634,1
328,328,329,4,PH1,positive,comfy,positive,543,1
329,329,330,53,NL1,negative,relax,positive,700,1
330,330,331,18,PL1,positive,comfy,positive,529,1
331,331,332,27,PL2,positive,excite,positive,444,1
332,332,333,30,PL2,positive,dismal,negative,513,1
333,333,334,54,NL1,negative,comfy,positive,529,1
334,334,335,26,PL2,positive,comfy,positive,405,1
335,335,336,43,NH2,negative,morgue,negative,440,1
336,336,337,50,NL1,negative,dismal,negative,481,1
337,337,338,29,PL2,positive,morgue,negative,479,1
338,338,339,8,PH1,positive,dismal,negative,440,1
339,339,340,24,PL1,positive,arrest,negative,482,1
340,340,341,33,NH1,negative,fatal,negative,418,1
341,341,342,62,NL2,negative,comfy,positive,548,1
342,342,343,38,NH1,negative,payday,positive,690,1
343,343,344,10,PH2,positive,payday,positive,431,1
344,344,345,34,NH1,negative,arrest,negative,510,1
345,345,346,57,NL2,negative,morgue,negative,467,1
346,346,347,35,NH1,negative,morgue,negative,756,1
347,347,348,19,PL1,positive,excite,positive,537,1
348,348,349,42,NH2,negative,arrest,negative,557,2
349,349,350,23,PL1,positive,fatal,negative,595,1
350,350,351,47,NH2,negative,relax,positive,484,1
351,351,352,11,PH2,positive,relax,positive,535,1
352,352,353,45,NH2,negative,excite,positive,607,1
353,353,354,31,PL2,positive,fatal,negative,501,1
354,354,355,59,NL2,negative,fatal,negative,399,1
355,355,356,5,PH1,positive,fatal,negative,368,1
356,356,357,60,NL2,negative,arrest,negative,448,1
357,357,358,37,NH1,negative,excite,positive,519,1
358,358,359,25,PL2,positive,relax,positive,536,1
359,359,360,30,PL2,positive,dismal,negative,463,1
360,360,361,60,NL2,negative,arrest,negative,548,1
361,361,362,6,PH1,positive,arrest,negative,542,1
362,362,363,20,PL1,positive,payday,positive,599,1
363,363,364,21,PL1,positive,morgue,negative,567,1
364,364,365,44,NH2,negative,dismal,negative,529,1
365,365,366,19,PL1,positive,excite,positive,478,1
366,366,367,51,NL1,negative,fatal,negative,494,1
367,367,368,4,PH1,positive,comfy,positive,422,1
368,368,369,27,PL2,positive,excite,positive,503,1
369,369,370,48,NH2,negative,comfy,positive,526,1
370,370,371,62,NL2,negative,comfy,positive,493,1
371,371,372,24,PL1,positive,arrest,negative,453,1
372,372,373,12,PH2,positive,comfy,positive,466,1
373,373,374,54,NL1,negative,comfy,positive,415,1
374,374,375,35,NH1,negative,morgue,negative,501,1
375,375,376,55,NL1,negative,excite,positive,469,1
376,376,377,41,NH2,negative,fatal,negative,501,1
377,377,378,61,NL2,negative,relax,positive,554,1
378,378,379,17,PL1,positive,relax,positive,514,1
379,379,380,31,PL2,positive,fatal,negative,485,1
380,380,381,11,PH2,positive,relax,positive,531,1
381,381,382,29,PL2,positive,morgue,negative,592,1
382,382,383,34,NH1,negative,arrest,negative,443,1
383,383,384,63,NL2,negative,excite,positive,518,1
384,384,385,58,NL2,negative,dismal,negative,586,1
385,385,386,26,PL2,positive,comfy,positive,371,1
386,386,387,15,PH2,positive,morgue,negative,494,1
387,387,388,52,NL1,negative,arrest,negative,625,1
388,388,389,23,PL1,positive,fatal,negative,562,1
389,389,390,43,NH2,negative,morgue,negative,471,1
390,390,391,33,NH1,negative,fatal,negative,557,1
391,391,392,9,PH2,positive,excite,positive,350,1
392,392,393,53,NL1,negative,relax,positive,444,2
393,393,394,18,PL1,positive,comfy,positive,468,1
394,394,395,42,NH2,negative,arrest,negative,431,1
395,395,396,39,NH1,negative,relax,positive,592,1
396,396,397,50,NL1,negative,dismal,negative,512,1
397,397,398,64,NL2,negative,payday,positive,622,1
398,398,399,57,NL2,negative,morgue,negative,464,1
399,399,400,28,PL2,positive,payday,positive,531,1
400,400,401,22,PL1,positive,dismal,negative,467,1
401,401,402,32,PL2,positive,arrest,negative,563,1
402,402,403,46,NH2,negative,payday,positive,474,1
403,403,404,7,PH1,positive,morgue,negative,497,1
404,404,405,25,PL2,positive,relax,positive,462,1
405,405,406,16,PH2,positive,dismal,negative,340,1
406,406,407,2,PH1,positive,payday,positive,471,1
407,407,408,37,NH1,negative,excite,positive,541,1
408,408,409,47,NH2,negative,relax,positive,440,1
409,409,410,3,PH1,positive,relax,positive,411,1
410,410,411,59,NL2,negative,fatal,negative,537,1
411,411,412,49,NL1,negative,morgue,negative,549,1
412,412,413,8,PH1,positive,dismal,negative,507,1
413,413,414,1,PH1,positive,excite,positive,566,2
414,414,415,56,NL1,negative,payday,positive,595,1
415,415,416,36,NH1,negative,dismal,negative,543,1
416,416,417,45,NH2,negative,excite,positive,546,1
417,417,418,13,PH2,positive,fatal,negative,525,1
418,418,419,40,NH1,negative,comfy,positive,551,1
419,419,420,41,NH2,negative,fatal,negative,481,1
420,420,421,63,NL2,negative,excite,positive,696,1
421,421,422,24,PL1,positive,arrest,negative,461,1
422,422,423,17,PL1,positive,relax,positive,652,2
423,423,424,45,NH2,negative,excite,positive,580,1
424,424,425,22,PL1,positive,dismal,negative,666,1
425,425,426,14,PH2,positive,arrest,negative,557,1
426,426,427,47,NH2,negative,relax,positive,622,1
427,427,428,42,NH2,negative,arrest,negative,553,1
428,428,429,29,PL2,positive,morgue,negative,566,1
429,429,430,48,NH2,negative,comfy,positive,529,1
430,430,431,11,PH2,positive,relax,positive,444,1
431,431,432,23,PL1,positive,fatal,negative,628,1
432,432,433,19,PL1,positive,excite,positive,462,1
433,433,434,4,PH1,positive,comfy,positive,470,1
434,434,435,34,NH1,negative,arrest,negative,454,1
435,435,436,30,PL2,positive,dismal,negative,420,1
436,436,437,60,NL2,negative,arrest,negative,459,1
437,437,438,9,PH2,positive,excite,positive,444,1
438,438,439,27,PL2,positive,excite,positive,487,1
439,439,440,25,PL2,positive,relax,positive,483,1
440,440,441,40,NH1,negative,comfy,positive,510,1
441,441,442,3,PH1,positive,relax,positive,477,1
442,442,443,53,NL1,negative,relax,positive,580,1
443,443,444,15,PH2,positive,morgue,negative,574,1
444,444,445,16,PH2,positive,dismal,negative,463,1
445,445,446,54,NL1,negative,comfy,positive,471,1
446,446,447,7,PH1,positive,morgue,negative,481,1
447,447,448,56,NL1,negative,payday,positive,510,1
448,448,449,43,NH2,negative,morgue,negative,437,1
449,449,450,28,PL2,positive,payday,positive,435,1
450,450,451,5,PH1,positive,fatal,negative,482,1
451,451,452,10,PH2,positive,payday,positive,376,1
452,452,453,32,PL2,positive,arrest,negative,431,1
453,453,454,38,NH1,negative,payday,positive,523,1
454,454,455,57,NL2,negative,morgue,negative,500,1
455,455,456,33,NH1,negative,fatal,negative,522,1
456,456,457,12,PH2,positive,comfy,positive,544,1
457,457,458,50,NL1,negative,dismal,negative,549,1
458,458,459,59,NL2,negative,fatal,negative,435,1
459,459,460,18,PL1,positive,comfy,positive,465,1
460,460,461,2,PH1,positive,payday,positive,388,1
461,461,462,20,PL1,positive,payday,positive,386,1
462,462,463,37,NH1,negative,excite,positive,432,1
463,463,464,31,PL2,positive,fatal,negative,585,1
464,464,465,35,NH1,negative,morgue,negative,516,1
465,465,466,49,NL1,negative,morgue,negative,450,1
466,466,467,1,PH1,positive,excite,positive,450,1
467,467,468,6,PH1,positive,arrest,negative,474,1
468,468,469,36,NH1,negative,dismal,negative,456,1
469,469,470,61,NL2,negative,relax,positive,467,1
470,470,471,8,PH1,positive,dismal,negative,579,1
471,471,472,44,NH2,negative,dismal,negative,408,1
472,472,473,39,NH1,negative,relax,positive,430,1
473,473,474,13,PH2,positive,fatal,negative,501,1
474,474,475,55,NL1,negative,excite,positive,479,1
475,475,476,46,NH2,negative,payday,positive,499,1
476,476,477,58,NL2,negative,dismal,negative,556,1
477,477,478,51,NL1,negative,fatal,negative,545,1
478,478,479,52,NL1,negative,arrest,negative,465,1
479,479,480,31,PL2,positive,fatal,negative,501,1
480,480,481,55,NL1,negative,excite,positive,636,1
481,481,482,13,PH2,positive,fatal,negative,635,1
482,482,483,33,NH1,negative,fatal,negative,597,1
483,483,484,37,NH1,negative,excite,positive,502,1
484,484,485,19,PL1,positive,excite,positive,503,1
485,485,486,10,PH2,positive,payday,positive,634,2
486,486,487,9,PH2,positive,excite,positive,596,1
487,487,488,40,NH1,negative,comfy,positive,717,1
488,488,489,30,PL2,positive,dismal,negative,621,1
489,489,490,26,PL2,positive,comfy,positive,493,1
490,490,491,56,NL1,negative,payday,positive,549,2
491,491,492,12,PH2,positive,comfy,positive,526,1
492,492,493,22,PL1,positive,dismal,negative,739,1
493,493,494,61,NL2,negative,relax,positive,621,1
494,494,495,6,PH1,positive,arrest,negative,684,1
495,495,496,3,PH1,positive,relax,positive,622,1
496,496,497,36,NH1,negative,dismal,negative,628,1
497,497,498,59,NL2,negative,fatal,negative,532,1
498,498,499,50,NL1,negative,dismal,negative,564,1
499,499,500,63,NL2,negative,excite,positive,558,1
500,500,501,44,NH2,negative,dismal,negative,582,1
501,501,502,60,NL2,negative,arrest,negative,589,1
502,502,503,29,PL2,positive,morgue,negative,557,1
503,503,504,18,PL1,positive,comfy,positive,587,1
504,504,505,27,PL2,positive,excite,positive,590,1
505,505,506,28,PL2,positive,payday,positive,558,2
506,506,507,52,NL1,negative,arrest,negative,581,1
507,507,508,20,PL1,positive,payday,positive,651,1
508,508,509,58,NL2,negative,dismal,negative,702,1
509,509,510,16,PH2,positive,dismal,negative,726,1
510,510,511,1,PH1,positive,excite,positive,589,1
511,511,512,42,NH2,negative,arrest,negative,526,1
512,512,513,14,PH2,positive,arrest,negative,501,1
513,513,514,62,NL2,negative,comfy,positive,588,1
514,514,515,41,NH2,negative,fatal,negative,742,1
515,515,516,7,PH1,positive,morgue,negative,563,1
516,516,517,24,PL1,positive,arrest,negative,621,1
517,517,518,43,NH2,negative,morgue,negative,470,1
518,518,519,48,NH2,negative,comfy,positive,531,1
519,519,520,34,NH1,negative,arrest,negative,476,1
520,520,521,8,PH1,positive,dismal,negative,573,1
521,521,522,21,PL1,positive,morgue,negative,549,1
522,522,523,2,PH1,positive,payday,positive,564,1
523,523,524,23,PL1,positive,fatal,negative,463,1
524,524,525,54,NL1,negative,comfy,positive,674,1
525,525,526,17,PL1,positive,relax,positive,765,1
526,526,527,49,NL1,negative,morgue,negative,619,1
527,527,528,25,PL2,positive,relax,positive,524,1
528,528,529,5,PH1,positive,fatal,negative,507,1
529,529,530,15,PH2,positive,morgue,negative,527,1
530,530,531,47,NH2,negative,relax,positive,590,1
531,531,532,38,NH1,negative,payday,positive,663,1
532,532,533,11,PH2,positive,relax,positive,564,1
533,533,534,53,NL1,negative,relax,positive,572,1
534,534,535,57,NL2,negative,morgue,negative,587,1
535,535,536,4,PH1,positive,comfy,positive,662,1
536,536,537,45,NH2,negative,excite,positive,552,1
537,537,538,39,NH1,negative,relax,positive,579,1
538,538,539,64,NL2,negative,payday,positive,687,1
539,539,540,45,NH2,negative,excite,positive,668,1
540,540,541,21,PL1,positive,morgue,negative,696,1
541,541,542,27,PL2,positive,excite,positive,674,1
542,542,543,34,NH1,negative,arrest,negative,605,1
543,543,544,5,PH1,positive,fatal,negative,733,1
544,544,545,9,PH2,positive,excite,positive,553,1
545,545,546,37,NH1,negative,excite,positive,581,1
546,546,547,57,NL2,negative,morgue,negative,529,1
547,547,548,23,PL1,positive,fatal,negative,494,1
548,548,549,12,PH2,positive,comfy,positive,623,1
549,549,550,32,PL2,positive,arrest,negative,670,1
550,550,551,62,NL2,negative,comfy,positive,645,1
551,551,552,4,PH1,positive,comfy,positive,669,1
552,552,553,11,PH2,positive,relax,positive,518,1
553,553,554,61,NL2,negative,relax,positive,632,1
554,554,555,24,PL1,positive,arrest,negative,676,1
555,555,556,3,PH1,positive,relax,positive,730,1
556,556,557,7,PH1,positive,morgue,negative,562,1
557,557,558,33,NH1,negative,fatal,negative,567,1
558,558,559,41,NH2,negative,fatal,negative,514,1
559,559,560,17,PL1,positive,relax,positive,615,1
560,560,561,25,PL2,positive,relax,positive,607,1
561,561,562,2,PH1,positive,payday,positive,581,1
562,562,563,39,NH1,negative,relax,positive,587,1
563,563,564,38,NH1,negative,payday,positive,550,1
564,564,565,46,NH2,negative,payday,positive,614,1
565,565,566,42,NH2,negative,arrest,negative,503,1
566,566,567,56,NL1,negative,payday,positive,499,1
567,567,568,16,PH2,positive,dismal,negative,588,1
568,568,569,40,NH1,negative,comfy,positive,608,1
569,569,570,28,PL2,positive,payday,positive,531,1
570,570,571,13,PH2,positive,fatal,negative,591,1
571,571,572,53,NL1,negative,relax,positive,592,1
572,572,573,55,NL1,negative,excite,positive,546,1
573,573,574,22,PL1,positive,dismal,negative,526,1
574,574,575,35,NH1,negative,morgue,negative,587,1
575,575,576,58,NL2,negative,dismal,negative,600,1
576,576,577,59,NL2,negative,fatal,negative,602,1
577,577,578,44,NH2,negative,dismal,negative,556,1
578,578,579,18,PL1,positive,comfy,positive,532,1
579,579,580,30,PL2,positive,dismal,negative,565,1
580,580,581,15,PH2,positive,morgue,negative,609,1
581,581,582,52,NL1,negative,arrest,negative,595,1
582,582,583,8,PH1,positive,dismal,negative,516,1
583,583,584,60,NL2,negative,arrest,negative,531,1
584,584,585,31,PL2,positive,fatal,negative,523,1
585,585,586,43,NH2,negative,morgue,negative,647,1
586,586,587,47,NH2,negative,relax,positive,587,1
587,587,588,29,PL2,positive,morgue,negative,623,1
588,588,589,10,PH2,positive,payday,positive,586,1
589,589,590,54,NL1,negative,comfy,positive,575,1
590,590,591,50,NL1,negative,dismal,negative,532,1
591,591,592,26,PL2,positive,comfy,positive,575,1
592,592,593,48,NH2,negative,comfy,positive,579,1
593,593,594,20,PL1,positive,payday,positive,662,1
594,594,595,6,PH1,positive,arrest,negative,587,1
595,595,596,36,NH1,negative,dismal,negative,520,1
596,596,597,14,PH2,positive,arrest,negative,568,1
597,597,598,19,PL1,positive,excite,positive,502,1
598,598,599,49,NL1,negative,morgue,negative,579,1
599,599,600,63,NL2,negative,excite,positive,686,1
600,600,601,19,PL1,positive,excite,positive,427,1
601,601,602,56,NL1,negative,payday,positive,933,1
602,602,603,11,PH2,positive,relax,positive,821,1
603,603,604,31,PL2,positive,fatal,negative,633,1
604,604,605,6,PH1,positive,arrest,negative,845,1
605,605,606,62,NL2,negative,comfy,positive,698,1
606,606,607,44,NH2,negative,dismal,negative,610,1
607,607,608,20,PL1,positive,payday,positive,632,1
608,608,609,8,PH1,positive,dismal,negative,509,1
609,609,610,10,PH2,positive,payday,positive,483,1
610,610,611,50,NL1,negative,dismal,negative,534,1
611,611,612,41,NH2,negative,fatal,negative,876,1
612,612,613,36,NH1,negative,dismal,negative,559,1
613,613,614,27,PL2,positive,excite,positive,627,1
614,614,615,9,PH2,positive,excite,positive,620,1
615,615,616,2,PH1,positive,payday,positive,813,1
616,616,617,42,NH2,negative,arrest,negative,509,1
617,617,618,3,PH1,positive,relax,positive,896,1
618,618,619,23,PL1,positive,fatal,negative,545,1
619,619,620,18,PL1,positive,comfy,positive,823,1
620,620,621,13,PH2,positive,fatal,negative,581,1
621,621,622,64,NL2,negative,payday,positive,574,1
622,622,623,60,NL2,negative,arrest,negative,528,1
623,623,624,53,NL1,negative,relax,positive,561,1
624,624,625,52,NL1,negative,arrest,negative,530,1
625,625,626,59,NL2,negative,fatal,negative,478,1
626,626,627,16,PH2,positive,dismal,negative,514,1
627,627,628,54,NL1,negative,comfy,positive,835,1
628,628,629,17,PL1,positive,relax,positive,443,1
629,629,630,57,NL2,negative,morgue,negative,626,1
630,630,631,4,PH1,positive,comfy,positive,515,1
631,631,632,5,PH1,positive,fatal,negative,554,1
632,632,633,34,NH1,negative,arrest,negative,639,1
633,633,634,14,PH2,positive,arrest,negative,841,1
634,634,635,55,NL1,negative,excite,positive,501,1
635,635,636,37,NH1,negative,excite,positive,907,1
636,636,637,48,NH2,negative,comfy,positive,747,1
637,637,638,40,NH1,negative,comfy,positive,660,1
638,638,639,1,PH1,positive,excite,positive,430,1
639,639,640,61,NL2,negative,relax,positive,671,1
640,640,641,25,PL2,positive,relax,positive,551,1
641,641,642,47,NH2,negative,relax,positive,589,1
642,642,643,38,NH1,negative,payday,positive,476,1
643,643,644,46,NH2,negative,payday,positive,529,1
644,644,645,51,NL1,negative,fatal,negative,515,1
645,645,646,43,NH2,negative,morgue,negative,584,1
646,646,647,22,PL1,positive,dismal,negative,521,1
647,647,648,45,NH2,negative,excite,positive,522,1
648,648,649,35,NH1,negative,morgue,negative,505,1
649,649,650,21,PL1,positive,morgue,negative,481,1
650,650,651,12,PH2,positive,comfy,positive,562,1
651,651,652,24,PL1,positive,arrest,negative,549,1
652,652,653,58,NL2,negative,dismal,negative,570,1
653,653,654,49,NL1,negative,morgue,negative,586,1
654,654,655,26,PL2,positive,comfy,positive,558,1
655,655,656,28,PL2,positive,payday,positive,754,1
656,656,657,33,NH1,negative,fatal,negative,510,1
657,657,658,7,PH1,positive,morgue,negative,523,1
658,658,659,48,NH2,negative,comfy,positive,650,1
659,659,660,42,NH2,negative,arrest,negative,539,1
660,660,661,43,NH2,negative,morgue,negative,624,1
661,661,662,55,NL1,negative,excite,positive,519,1
662,662,663,23,PL1,positive,fatal,negative,652,1
663,663,664,4,PH1,positive,comfy,positive,750,1
664,664,665,18,PL1,positive,comfy,positive,465,1
665,665,666,25,PL2,positive,relax,positive,490,1
666,666,667,28,PL2,positive,payday,positive,602,1
667,667,668,2,PH1,positive,payday,positive,491,1
668,668,669,36,NH1,negative,dismal,negative,635,1
669,669,670,13,PH2,positive,fatal,negative,538,1
670,670,671,20,PL1,positive,payday,positive,484,1
671,671,672,53,NL1,negative,relax,positive,664,1
672,672,673,62,NL2,negative,comfy,positive,501,1
673,673,674,54,NL1,negative,comfy,positive,400,1
674,674,675,34,NH1,negative,arrest,negative,436,1
675,675,676,35,NH1,negative,morgue,negative,525,1
676,676,677,58,NL2,negative,dismal,negative,460,1
677,677,678,3,PH1,positive,relax,positive,500,1
678,678,679,57,NL2,negative,morgue,negative,576,1
679,679,680,60,NL2,negative,arrest,negative,466,1
680,680,681,51,NL1,negative,fatal,negative,558,1
681,681,682,52,NL1,negative,arrest,negative,475,1
682,682,683,30,PL2,positive,dismal,negative,610,1
683,683,684,50,NL1,negative,dismal,negative,439,1
684,684,685,49,NL1,negative,morgue,negative,505,1
685,685,686,9,PH2,positive,excite,positive,419,1
686,686,687,6,PH1,positive,arrest,negative,715,1
687,687,688,33,NH1,negative,fatal,negative,471,1
688,688,689,7,PH1,positive,morgue,negative,398,1
689,689,690,39,NH1,negative,relax,positive,649,1
690,690,691,47,NH2,negative,relax,positive,450,1
691,691,692,31,PL2,positive,fatal,negative,440,1
692,692,693,17,PL1,positive,relax,positive,464,1
693,693,694,64,NL2,negative,payday,positive,538,1
694,694,695,41,NH2,negative,fatal,negative,406,1
695,695,696,15,PH2,positive,morgue,negative,537,1
696,696,697,44,NH2,negative,dismal,negative,439,1
697,697,698,32,PL2,positive,arrest,negative,456,1
698,698,699,26,PL2,positive,comfy,positive,480,1
699,699,700,46,NH2,negative,payday,positive,506,1
700,700,701,11,PH2,positive,relax,positive,454,1
701,701,702,40,NH1,negative,comfy,positive,529,1
702,702,703,1,PH1,positive,excite,positive,486,1
703,703,704,19,PL1,positive,excite,positive,480,1
704,704,705,21,PL1,positive,morgue,negative,545,1
705,705,706,38,NH1,negative,payday,positive,565,1
706,706,707,27,PL2,positive,excite,positive,449,1
707,707,708,5,PH1,positive,fatal,negative,429,1
708,708,709,10,PH2,positive,payday,positive,659,1
709,709,710,22,PL1,positive,dismal,negative,738,1
710,710,711,24,PL1,positive,arrest,negative,593,1
711,711,712,37,NH1,negative,excite,positive,451,1
712,712,713,16,PH2,positive,dismal,negative,576,1
713,713,714,29,PL2,positive,morgue,negative,468,1
714,714,715,12,PH2,positive,comfy,positive,582,1
715,715,716,61,NL2,negative,relax,positive,460,1
716,716,717,45,NH2,negative,excite,positive,443,1
717,717,718,8,PH1,positive,dismal,negative,493,1
718,718,719,16,PH2,positive,dismal,negative,579,1
719,719,720,28,PL2,positive,payday,positive,846,1
720,720,721,26,PL2,positive,comfy,positive,920,1
721,721,722,64,NL2,negative,payday,positive,679,1
722,722,723,37,NH1,negative,excite,positive,657,1
723,723,724,24,PL1,positive,arrest,negative,619,1
724,724,725,14,PH2,positive,arrest,negative,728,1
725,725,726,43,NH2,negative,morgue,negative,569,1
726,726,727,38,NH1,negative,payday,positive,584,1
727,727,728,19,PL1,positive,excite,positive,432,1
728,728,729,4,PH1,positive,comfy,positive,570,1
729,729,730,52,NL1,negative,arrest,negative,529,1
730,730,731,33,NH1,negative,fatal,negative,666,1
731,731,732,23,PL1,positive,fatal,negative,460,1
732,732,733,53,NL1,negative,relax,positive,710,1
733,733,734,32,PL2,positive,arrest,negative,728,1
734,734,735,30,PL2,positive,dismal,negative,632,1
735,735,736,47,NH2,negative,relax,positive,488,2
736,736,737,8,PH1,positive,dismal,negative,618,1
737,737,738,9,PH2,positive,excite,positive,398,2
738,738,739,48,NH2,negative,comfy,positive,584,1
739,739,740,44,NH2,negative,dismal,negative,521,1
740,740,741,36,NH1,negative,dismal,negative,545,1
741,741,742,17,PL1,positive,relax,positive,714,2
742,742,743,41,NH2,negative,fatal,negative,490,1
743,743,744,1,PH1,positive,excite,positive,641,1
744,744,745,20,PL1,positive,payday,positive,530,2
745,745,746,25,PL2,positive,relax,positive,649,1
746,746,747,59,NL2,negative,fatal,negative,394,1
747,747,748,61,NL2,negative,relax,positive,434,2
748,748,749,2,PH1,positive,payday,positive,534,1
749,749,750,13,PH2,positive,fatal,negative,560,1
750,750,751,54,NL1,negative,comfy,positive,488,2
751,751,752,22,PL1,positive,dismal,negative,662,1
752,752,753,21,PL1,positive,morgue,negative,562,1
753,753,754,29,PL2,positive,morgue,negative,465,2
754,754,755,55,NL1,negative,excite,positive,904,1
755,755,756,15,PH2,positive,morgue,negative,865,1
756,756,757,34,NH1,negative,arrest,negative,570,1
757,757,758,6,PH1,positive,arrest,negative,768,2
758,758,759,45,NH2,negative,excite,positive,601,1
759,759,760,56,NL1,negative,payday,positive,505,1
760,760,761,27,PL2,positive,excite,positive,401,2
761,761,762,46,NH2,negative,payday,positive,505,1
762,762,763,57,NL2,negative,morgue,negative,639,1
763,763,764,49,NL1,negative,morgue,negative,744,1
764,764,765,62,NL2,negative,comfy,positive,601,1
765,765,766,5,PH1,positive,fatal,negative,400,1
766,766,767,35,NH1,negative,morgue,negative,531,1
767,767,768,50,NL1,negative,dismal,negative,584,1
768,768,769,10,PH2,positive,payday,positive,504,1
769,769,770,12,PH2,positive,comfy,positive,561,1
770,770,771,31,PL2,positive,fatal,negative,761,1
771,771,772,39,NH1,negative,relax,positive,719,1
772,772,773,7,PH1,positive,morgue,negative,402,1
773,773,774,11,PH2,positive,relax,positive,689,1
774,774,775,18,PL1,positive,comfy,positive,450,1
775,775,776,63,NL2,negative,excite,positive,504,1
776,776,777,37,NH1,negative,excite,positive,532,1
777,777,778,33,NH1,negative,fatal,negative,537,1
778,778,779,17,PL1,positive,relax,positive,469,1
779,779,780,2,PH1,positive,payday,positive,625,1
780,780,781,44,NH2,negative,dismal,negative,526,1
781,781,782,56,NL1,negative,payday,positive,551,1
782,782,783,10,PH2,positive,payday,positive,513,1
783,783,784,38,NH1,negative,payday,positive,546,1
784,784,785,16,PH2,positive,dismal,negative,611,1
785,785,786,51,NL1,negative,fatal,negative,604,1
786,786,787,22,PL1,positive,dismal,negative,555,1
787,787,788,41,NH2,negative,fatal,negative,589,1
788,788,789,42,NH2,negative,arrest,negative,517,1
789,789,790,53,NL1,negative,relax,positive,588,1
790,790,791,23,PL1,positive,fatal,negative,460,1
791,791,792,12,PH2,positive,comfy,positive,505,1
792,792,793,19,PL1,positive,excite,positive,618,2
793,793,794,54,NL1,negative,comfy,positive,535,1
794,794,795,30,PL2,positive,dismal,negative,593,1
795,795,796,55,NL1,negative,excite,positive,682,1
796,796,797,48,NH2,negative,comfy,positive,521,1
797,797,798,27,PL2,positive,excite,positive,557,1
798,798,799,63,NL2,negative,excite,positive,404,1
799,799,800,39,NH1,negative,relax,positive,543,1
800,800,801,58,NL2,negative,dismal,negative,526,1
801,801,802,64,NL2,negative,payday,positive,459,1
802,802,803,50,NL1,negative,dismal,negative,654,1
803,803,804,36,NH1,negative,dismal,negative,493,1
804,804,805,40,NH1,negative,comfy,positive,457,1
805,805,806,49,NL1,negative,morgue,negative,637,1
806,806,807,34,NH1,negative,arrest,negative,520,1
807,807,808,59,NL2,negative,fatal,negative,619,1
808,808,809,14,PH2,positive,arrest,negative,429,1
809,809,810,26,PL2,positive,comfy,positive,482,1
810,810,811,62,NL2,negative,comfy,positive,514,1
811,811,812,18,PL1,positive,comfy,positive,519,1
812,812,813,21,PL1,positive,morgue,negative,478,1
813,813,814,8,PH1,positive,dismal,negative,551,1
814,814,815,25,PL2,positive,relax,positive,542,1
815,815,816,5,PH1,positive,fatal,negative,650,1
816,816,817,47,NH2,negative,relax,positive,508,1
817,817,818,7,PH1,positive,morgue,negative,507,1
818,818,819,31,PL2,positive,fatal,negative,569,1
819,819,820,32,PL2,positive,arrest,negative,597,1
820,820,821,15,PH2,positive,morgue,negative,476,1
821,821,822,61,NL2,negative,relax,positive,460,1
822,822,823,45,NH2,negative,excite,positive,446,1
823,823,824,35,NH1,negative,morgue,negative,464,1
824,824,825,1,PH1,positive,excite,positive,444,1
825,825,826,13,PH2,positive,fatal,negative,608,1
826,826,827,57,NL2,negative,morgue,negative,388,1
827,827,828,20,PL1,positive,payday,positive,543,1
828,828,829,3,PH1,positive,relax,positive,582,1
829,829,830,6,PH1,positive,arrest,negative,484,1
830,830,831,46,NH2,negative,payday,positive,551,1
831,831,832,28,PL2,positive,payday,positive,434,1
832,832,833,24,PL1,positive,arrest,negative,457,1
833,833,834,60,NL2,negative,arrest,negative,452,1
834,834,835,4,PH1,positive,comfy,positive,430,1
835,835,836,43,NH2,negative,morgue,negative,366,2
836,836,837,32,PL2,positive,arrest,negative,676,1
837,837,838,24,PL1,positive,arrest,negative,566,1
838,838,839,54,NL1,negative,comfy,positive,438,1
839,839,840,36,NH1,negative,dismal,negative,531,1
840,840,841,44,NH2,negative,dismal,negative,416,1
841,841,842,30,PL2,positive,dismal,negative,386,2
842,842,843,15,PH2,positive,morgue,negative,637,1
843,843,844,29,PL2,positive,morgue,negative,592,1
844,844,845,9,PH2,positive,excite,positive,579,1
845,845,846,40,NH1,negative,comfy,positive,598,1
846,846,847,42,NH2,negative,arrest,negative,364,1
847,847,848,27,PL2,positive,excite,positive,487,1
848,848,849,61,NL2,negative,relax,positive,478,1
849,849,850,1,PH1,positive,excite,positive,587,1
850,850,851,59,NL2,negative,fatal,negative,533,1
851,851,852,55,NL1,negative,excite,positive,552,1
852,852,853,63,NL2,negative,excite,positive,488,1
853,853,854,35,NH1,negative,morgue,negative,533,1
854,854,855,41,NH2,negative,fatal,negative,408,1
855,855,856,8,PH1,positive,dismal,negative,474,1
856,856,857,19,PL1,positive,excite,positive,495,1
857,857,858,20,PL1,positive,payday,positive,417,1
858,858,859,26,PL2,positive,comfy,positive,454,1
859,859,860,38,NH1,negative,payday,positive,636,1
860,860,861,16,PH2,positive,dismal,negative,628,1
861,861,862,11,PH2,positive,relax,positive,594,1
862,862,863,3,PH1,positive,relax,positive,600,1
863,863,864,12,PH2,positive,comfy,positive,593,1
864,864,865,28,PL2,positive,payday,positive,555,1
865,865,866,7,PH1,positive,morgue,negative,346,1
866,866,867,58,NL2,negative,dismal,negative,517,1
867,867,868,33,NH1,negative,fatal,negative,431,1
868,868,869,52,NL1,negative,arrest,negative,551,1
869,869,870,34,NH1,negative,arrest,negative,473,1
870,870,871,10,PH2,positive,payday,positive,424,1
871,871,872,43,NH2,negative,morgue,negative,543,2
872,872,873,56,NL1,negative,payday,positive,615,1
873,873,874,37,NH1,negative,excite,positive,618,1
874,874,875,13,PH2,positive,fatal,negative,486,1
875,875,876,21,PL1,positive,morgue,negative,500,1
876,876,877,47,NH2,negative,relax,positive,633,1
877,877,878,14,PH2,positive,arrest,negative,630,1
878,878,879,50,NL1,negative,dismal,negative,482,1
879,879,880,25,PL2,positive,relax,positive,521,1
880,880,881,57,NL2,negative,morgue,negative,583,1
881,881,882,49,NL1,negative,morgue,negative,491,1
882,882,883,51,NL1,negative,fatal,negative,502,1
883,883,884,18,PL1,positive,comfy,positive,413,1
884,884,885,45,NH2,negative,excite,positive,527,1
885,885,886,4,PH1,positive,comfy,positive,561,1
886,886,887,31,PL2,positive,fatal,negative,484,1
887,887,888,60,NL2,negative,arrest,negative,517,1
888,888,889,48,NH2,negative,comfy,positive,567,1
889,889,890,53,NL1,negative,relax,positive,491,1
890,890,891,39,NH1,negative,relax,positive,570,1
891,891,892,22,PL1,positive,dismal,negative,471,1
892,892,893,6,PH1,positive,arrest,negative,555,1
893,893,894,64,NL2,negative,payday,positive,512,1
894,894,895,17,PL1,positive,relax,positive,587,1
895,895,896,2,PH1,positive,payday,positive,554,1
896,896,897,5,PH1,positive,fatal,negative,499,1
897,897,898,22,PL1,positive,dismal,negative,808,1
898,898,899,59,NL2,negative,fatal,negative,579,1
899,899,900,58,NL2,negative,dismal,negative,474,1
900,900,901,24,PL1,positive,arrest,negative,594,1
901,901,902,51,NL1,negative,fatal,negative,468,1
902,902,903,10,PH2,positive,payday,positive,317,1
903,903,904,31,PL2,positive,fatal,negative,371,2
904,904,905,33,NH1,negative,fatal,negative,409,1
905,905,906,54,NL1,negative,comfy,positive,740,1
906,906,907,57,NL2,negative,morgue,negative,733,1
907,907,908,49,NL1,negative,morgue,negative,374,1
908,908,909,44,NH2,negative,dismal,negative,391,1
909,909,910,50,NL1,negative,dismal,negative,448,1
910,910,911,18,PL1,positive,comfy,positive,506,1
911,911,912,47,NH2,negative,relax,positive,578,1
912,912,913,48,NH2,negative,comfy,positive,520,1
913,913,914,16,PH2,positive,dismal,negative,607,1
914,914,915,21,PL1,positive,morgue,negative,767,1
915,915,916,8,PH1,positive,dismal,negative,504,1
916,916,917,5,PH1,positive,fatal,negative,546,1
917,917,918,34,NH1,negative,arrest,negative,458,1
918,918,919,1,PH1,positive,excite,positive,580,1
919,919,920,30,PL2,positive,dismal,negative,822,1
920,920,921,53,NL1,negative,relax,positive,551,1
921,921,922,64,NL2,negative,payday,positive,511,1
922,922,923,45,NH2,negative,excite,positive,449,1
923,923,924,62,NL2,negative,comfy,positive,468,2
924,924,925,13,PH2,positive,fatal,negative,552,1
925,925,926,23,PL1,positive,fatal,negative,461,1
926,926,927,40,NH1,negative,comfy,positive,502,1
927,927,928,20,PL1,positive,payday,positive,481,1
928,928,929,42,NH2,negative,arrest,negative,579,1
929,929,930,63,NL2,negative,excite,positive,508,1
930,930,931,43,NH2,negative,morgue,negative,530,1
931,931,932,12,PH2,positive,comfy,positive,280,1
932,932,933,29,PL2,positive,morgue,negative,505,1
933,933,934,36,NH1,negative,dismal,negative,500,1
934,934,935,7,PH1,positive,morgue,negative,644,1
935,935,936,55,NL1,negative,excite,positive,563,1
936,936,937,60,NL2,negative,arrest,negative,470,1
937,937,938,27,PL2,positive,excite,positive,451,1
938,938,939,39,NH1,negative,relax,positive,433,1
939,939,940,9,PH2,positive,excite,positive,348,1
940,940,941,32,PL2,positive,arrest,negative,612,1
941,941,942,35,NH1,negative,morgue,negative,579,1
942,942,943,11,PH2,positive,relax,positive,325,1
943,943,944,52,NL1,negative,arrest,negative,663,1
944,944,945,4,PH1,positive,comfy,positive,436,1
945,945,946,6,PH1,positive,arrest,negative,440,1
946,946,947,28,PL2,positive,payday,positive,414,1
947,947,948,61,NL2,negative,relax,positive,565,1
948,948,949,56,NL1,negative,payday,positive,518,1
949,949,950,37,NH1,negative,excite,positive,419,1
950,950,951,2,PH1,positive,payday,positive,305,2
951,951,952,25,PL2,positive,relax,positive,422,1
952,952,953,14,PH2,positive,arrest,negative,340,2
953,953,954,19,PL1,positive,excite,positive,564,1
954,954,955,26,PL2,positive,comfy,positive,506,1
955,955,956,38,NH1,negative,payday,positive,461,1
956,956,957,15,PH2,positive,morgue,negative,564,1
957,957,958,23,PL1,positive,fatal,negative,682,1
958,958,959,41,NH2,negative,fatal,negative,726,1
959,959,960,15,PH2,positive,morgue,negative,748,1
960,960,961,54,NL1,negative,comfy,positive,728,1
961,961,962,55,NL1,negative,excite,positive,764,1
962,962,963,27,PL2,positive,excite,positive,543,1
963,963,964,51,NL1,negative,fatal,negative,705,1
964,964,965,45,NH2,negative,excite,positive,637,1
965,965,966,5,PH1,positive,fatal,negative,600,1
966,966,967,4,PH1,positive,comfy,positive,634,1
967,967,968,21,PL1,positive,morgue,negative,659,1
968,968,969,58,NL2,negative,dismal,negative,748,1
969,969,970,30,PL2,positive,dismal,negative,594,1
970,970,971,50,NL1,negative,dismal,negative,645,1
971,971,972,16,PH2,positive,dismal,negative,565,1
972,972,973,62,NL2,negative,comfy,positive,632,1
973,973,974,22,PL1,positive,dismal,negative,632,1
974,974,975,43,NH2,negative,morgue,negative,608,1
975,975,976,38,NH1,negative,payday,positive,810,1
976,976,977,63,NL2,negative,excite,positive,572,1
977,977,978,59,NL2,negative,fatal,negative,575,1
978,978,979,20,PL1,positive,payday,positive,525,1
979,979,980,61,NL2,negative,relax,positive,727,1
980,980,981,40,NH1,negative,comfy,positive,482,1
981,981,982,17,PL1,positive,relax,positive,547,1
982,982,983,34,NH1,negative,arrest,negative,821,1
983,983,984,28,PL2,positive,payday,positive,840,1
984,984,985,2,PH1,positive,payday,positive,569,1
985,985,986,13,PH2,positive,fatal,negative,566,1
986,986,987,57,NL2,negative,morgue,negative,641,1
987,987,988,9,PH2,positive,excite,positive,644,1
988,988,989,7,PH1,positive,morgue,negative,692,1
989,989,990,52,NL1,negative,arrest,negative,733,1
990,990,991,33,NH1,negative,fatal,negative,624,1
991,991,992,47,NH2,negative,relax,positive,750,1
992,992,993,49,NL1,negative,morgue,negative,704,1
993,993,994,1,PH1,positive,excite,positive,574,1
994,994,995,18,PL1,positive,comfy,positive,665,1
995,995,996,48,NH2,negative,comfy,positive,526,1
996,996,997,19,PL1,positive,excite,positive,623,1
997,997,998,39,NH1,negative,relax,positive,632,1
998,998,999,14,PH2,positive,arrest,negative,649,1
999,999,1000,53,NL1,negative,relax,positive,536,1
1000,1000,1001,12,PH2,positive,comfy,positive,557,1
1001,1001,1002,64,NL2,negative,payday,positive,692,1
1002,1002,1003,46,NH2,negative,payday,positive,538,1
1003,1003,1004,10,PH2,positive,payday,positive,383,1
1004,1004,1005,3,PH1,positive,relax,positive,670,1
1005,1005,1006,11,PH2,positive,relax,positive,496,1
1006,1006,1007,44,NH2,negative,dismal,negative,826,1
1007,1007,1008,36,NH1,negative,dismal,negative,608,1
1008,1008,1009,29,PL2,positive,morgue,negative,651,1
1009,1009,1010,6,PH1,positive,arrest,negative,755,1
1010,1010,1011,25,PL2,positive,relax,positive,687,1
1011,1011,1012,35,NH1,negative,morgue,negative,604,1
1012,1012,1013,26,PL2,positive,comfy,positive,562,1
1013,1013,1014,32,PL2,positive,arrest,negative,621,1
1014,1014,1015,37,NH1,negative,excite,positive,575,1
1015,1015,1016,8,PH1,positive,dismal,negative,562,1
1016,1016,1017,24,PL1,positive,arrest,negative,573,1
1017,1017,1018,49,NL1,negative,morgue,negative,632,1
1018,1018,1019,64,NL2,negative,payday,positive,633,1
1019,1019,1020,22,PL1,positive,dismal,negative,573,1
1020,1020,1021,62,NL2,negative,comfy,positive,525,1
1021,1021,1022,20,PL1,positive,payday,positive,572,1
1022,1022,1023,35,NH1,negative,morgue,negative,608,1
1023,1023,1024,12,PH2,positive,comfy,positive,515,1
1024,1024,1025,47,NH2,negative,relax,positive,630,1
1025,1025,1026,45,NH2,negative,excite,positive,570,2
1026,1026,1027,31,PL2,positive,fatal,negative,575,1
1027,1027,1028,30,PL2,positive,dismal,negative,686,1
1028,1028,1029,39,NH1,negative,relax,positive,530,1
1029,1029,1030,59,NL2,negative,fatal,negative,626,1
1030,1030,1031,14,PH2,positive,arrest,negative,599,1
1031,1031,1032,40,NH1,negative,comfy,positive,556,1
1032,1032,1033,60,NL2,negative,arrest,negative,573,1
1033,1033,1034,16,PH2,positive,dismal,negative,584,1
1034,1034,1035,7,PH1,positive,morgue,negative,574,1
1035,1035,1036,29,PL2,positive,morgue,negative,684,1
1036,1036,1037,55,NL1,negative,excite,positive,667,1
1037,1037,1038,43,NH2,negative,morgue,negative,543,1
1038,1038,1039,54,NL1,negative,comfy,positive,587,1
1039,1039,1040,44,NH2,negative,dismal,negative,560,1
1040,1040,1041,3,PH1,positive,relax,positive,613,1
1041,1041,1042,21,PL1,positive,morgue,negative,542,1
1042,1042,1043,1,PH1,positive,excite,positive,613,1
1043,1043,1044,46,NH2,negative,payday,positive,558,1
1044,1044,1045,32,PL2,positive,arrest,negative,544,1
1045,1045,1046,18,PL1,positive,comfy,positive,667,1
1046,1046,1047,56,NL1,negative,payday,positive,602,1
1047,1047,1048,50,NL1,negative,dismal,negative,481,1
1048,1048,1049,23,PL1,positive,fatal,negative,642,1
1049,1049,1050,19,PL1,positive,excite,positive,686,1
1050,1050,1051,28,PL2,positive,payday,positive,544,1
1051,1051,1052,26,PL2,positive,comfy,positive,499,1
1052,1052,1053,15,PH2,positive,morgue,negative,546,1
1053,1053,1054,10,PH2,positive,payday,positive,541,1
1054,1054,1055,11,PH2,positive,relax,positive,629,1
1055,1055,1056,48,NH2,negative,comfy,positive,487,1
1056,1056,1057,27,PL2,positive,excite,positive,591,1
1057,1057,1058,38,NH1,negative,payday,positive,514,1
1058,1058,1059,33,NH1,negative,fatal,negative,606,1
1059,1059,1060,8,PH1,positive,dismal,negative,512,1
1060,1060,1061,25,PL2,positive,relax,positive,616,1
1061,1061,1062,4,PH1,positive,comfy,positive,486,1
1062,1062,1063,52,NL1,negative,arrest,negative,586,1
1063,1063,1064,5,PH1,positive,fatal,negative,722,1
1064,1064,1065,57,NL2,negative,morgue,negative,571,1
1065,1065,1066,53,NL1,negative,relax,positive,641,1
1066,1066,1067,9,PH2,positive,excite,positive,555,1
1067,1067,1068,51,NL1,negative,fatal,negative,622,1
1068,1068,1069,2,PH1,positive,payday,positive,530,1
1069,1069,1070,63,NL2,negative,excite,positive,630,2
1070,1070,1071,37,NH1,negative,excite,positive,672,1
1071,1071,1072,36,NH1,negative,dismal,negative,572,1
1072,1072,1073,34,NH1,negative,arrest,negative,573,1
1073,1073,1074,58,NL2,negative,dismal,negative,458,1
1074,1074,1075,41,NH2,negative,fatal,negative,717,1
1075,1075,1076,17,PL1,positive,relax,positive,546,1
1076,1076,1077,42,NH2,negative,arrest,negative,540,1
1077,1077,1078,24,PL1,positive,arrest,negative,429,1
1078,1078,1079,6,PH1,positive,arrest,negative,457,1
1079,1079,1080,13,PH2,positive,fatal,negative,670,1
1080,1080,1081,61,NL2,negative,relax,positive,660,1
1081,1081,1082,39,NH1,negative,relax,positive,359,2
1082,1082,1083,41,NH2,negative,fatal,negative,566,1
1083,1083,1084,62,NL2,negative,comfy,positive,545,1
1084,1084,1085,25,PL2,positive,relax,positive,669,1
1085,1085,1086,27,PL2,positive,excite,positive,719,1
1086,1086,1087,29,PL2,positive,morgue,negative,705,1
1087,1087,1088,10,PH2,positive,payday,positive,849,1
1088,1088,1089,5,PH1,positive,fatal,negative,578,1
1089,1089,1090,38,NH1,negative,payday,positive,884,1
1090,1090,1091,64,NL2,negative,payday,positive,820,1
1091,1091,1092,28,PL2,positive,payday,positive,509,1
1092,1092,1093,23,PL1,positive,fatal,negative,803,1
1093,1093,1094,57,NL2,negative,morgue,negative,520,1
1094,1094,1095,21,PL1,positive,morgue,negative,446,1
1095,1095,1096,12,PH2,positive,comfy,positive,522,1
1096,1096,1097,24,PL1,positive,arrest,negative,789,1
1097,1097,1098,17,PL1,positive,relax,positive,626,1
1098,1098,1099,53,NL1,negative,relax,positive,727,1
1099,1099,1100,43,NH2,negative,morgue,negative,640,1
1100,1100,1101,56,NL1,negative,payday,positive,617,1
1101,1101,1102,9,PH2,positive,excite,positive,587,1
1102,1102,1103,34,NH1,negative,arrest,negative,1028,1
1103,1103,1104,2,PH1,positive,payday,positive,528,1
1104,1104,1105,36,NH1,negative,dismal,negative,536,1
1105,1105,1106,33,NH1,negative,fatal,negative,556,1
1106,1106,1107,6,PH1,positive,arrest,negative,549,1
1107,1107,1108,31,PL2,positive,fatal,negative,426,1
1108,1108,1109,7,PH1,positive,morgue,negative,506,1
1109,1109,1110,26,PL2,positive,comfy,positive,569,1
1110,1110,1111,16,PH2,positive,dismal,negative,529,1
1111,1111,1112,3,PH1,positive,relax,positive,629,1
1112,1112,1113,42,NH2,negative,arrest,negative,558,1
1113,1113,1114,49,NL1,negative,morgue,negative,463,1
1114,1114,1115,15,PH2,positive,morgue,negative,437,1
1115,1115,1116,4,PH1,positive,comfy,positive,668,1
1116,1116,1117,52,NL1,negative,arrest,negative,534,1
1117,1117,1118,11,PH2,positive,relax,positive,548,1
1118,1118,1119,37,NH1,negative,excite,positive,676,2
1119,1119,1120,22,PL1,positive,dismal,negative,598,1
1120,1120,1121,54,NL1,negative,comfy,positive,525,1
1121,1121,1122,45,NH2,negative,excite,positive,623,1
1122,1122,1123,30,PL2,positive,dismal,negative,682,1
1123,1123,1124,18,PL1,positive,comfy,positive,502,1
1124,1124,1125,48,NH2,negative,comfy,positive,408,1
1125,1125,1126,1,PH1,positive,excite,positive,608,1
1126,1126,1127,63,NL2,negative,excite,positive,539,1
1127,1127,1128,60,NL2,negative,arrest,negative,589,1
1128,1128,1129,35,NH1,negative,morgue,negative,526,1
1129,1129,1130,20,PL1,positive,payday,positive,583,1
1130,1130,1131,51,NL1,negative,fatal,negative,532,1
1131,1131,1132,44,NH2,negative,dismal,negative,429,1
1132,1132,1133,50,NL1,negative,dismal,negative,553,1
1133,1133,1134,14,PH2,positive,arrest,negative,655,1
1134,1134,1135,8,PH1,positive,dismal,negative,464,1
1135,1135,1136,46,NH2,negative,payday,positive,669,1
1136,1136,1137,47,NH2,negative,relax,positive,613,1
1137,1137,1138,40,NH1,negative,comfy,positive,560,1
1138,1138,1139,16,PH2,positive,dismal,negative,993,1
1139,1139,1140,39,NH1,negative,relax,positive,771,1
1140,1140,1141,38,NH1,negative,payday,positive,970,1
1141,1141,1142,64,NL2,negative,payday,positive,890,1
1142,1142,1143,36,NH1,negative,dismal,negative,1052,1
1143,1143,1144,49,NL1,negative,morgue,negative,1028,1
1144,1144,1145,11,PH2,positive,relax,positive,966,1
1145,1145,1146,37,NH1,negative,excite,positive,820,1
1146,1146,1147,22,PL1,positive,dismal,negative,772,1
1147,1147,1148,57,NL2,negative,morgue,negative,1094,1
1148,1148,1149,10,PH2,positive,payday,positive,1088,1
1149,1149,1150,30,PL2,positive,dismal,negative,1028,1
1150,1150,1151,53,NL1,negative,relax,positive,744,1
1151,1151,1152,24,PL1,positive,arrest,negative,1059,1
1152,1152,1153,46,NH2,negative,payday,positive,747,1
1153,1153,1154,4,PH1,positive,comfy,positive,959,1
1154,1154,1155,12,PH2,positive,comfy,positive,973,1
1155,1155,1156,28,PL2,positive,payday,positive,522,1
1156,1156,1157,48,NH2,negative,comfy,positive,737,1
1157,1157,1158,18,PL1,positive,comfy,positive,569,1
1158,1158,1159,56,NL1,negative,payday,positive,828,1
1159,1159,1160,15,PH2,positive,morgue,negative,1136,1
1160,1160,1161,21,PL1,positive,morgue,negative,1136,1
1161,1161,1162,62,NL2,negative,comfy,positive,953,1
1162,1162,1163,51,NL1,negative,fatal,negative,1112,1
1163,1163,1164,61,NL2,negative,relax,positive,864,1
1164,1164,1165,25,PL2,positive,relax,positive,924,1
1165,1165,1166,42,NH2,negative,arrest,negative,996,1
1166,1166,1167,2,PH1,positive,payday,positive,1060,1
1167,1167,1168,17,PL1,positive,relax,positive,658,1
1168,1168,1169,63,NL2,negative,excite,positive,786,1
1169,1169,1170,44,NH2,negative,dismal,negative,996,1
1170,1170,1171,33,NH1,negative,fatal,negative,1004,1
1171,1171,1172,14,PH2,positive,arrest,negative,948,1
1172,1172,1173,41,NH2,negative,fatal,negative,1026,1
1173,1173,1174,55,NL1,negative,excite,positive,923,1
1174,1174,1175,19,PL1,positive,excite,positive,723,1
1175,1175,1176,47,NH2,negative,relax,positive,766,1
1176,1176,1177,3,PH1,positive,relax,positive,565,1
1177,1177,1178,5,PH1,positive,fatal,negative,1019,1
1178,1178,1179,1,PH1,positive,excite,positive,1030,1
1179,1179,1180,54,NL1,negative,comfy,positive,831,1
1180,1180,1181,20,PL1,positive,payday,positive,616,1
1181,1181,1182,7,PH1,positive,morgue,negative,762,1
1182,1182,1183,40,NH1,negative,comfy,positive,975,1
1183,1183,1184,59,NL2,negative,fatal,negative,895,1
1184,1184,1185,26,PL2,positive,comfy,positive,759,1
1185,1185,1186,8,PH1,positive,dismal,negative,800,1
1186,1186,1187,9,PH2,positive,excite,positive,979,1
1187,1187,1188,50,NL1,negative,dismal,negative,1049,1
1188,1188,1189,60,NL2,negative,arrest,negative,942,1
1189,1189,1190,13,PH2,positive,fatal,negative,977,1
1190,1190,1191,45,NH2,negative,excite,positive,745,1
1191,1191,1192,58,NL2,negative,dismal,negative,983,1
1192,1192,1193,31,PL2,positive,fatal,negative,957,1
1193,1193,1194,23,PL1,positive,fatal,negative,1083,1
1194,1194,1195,29,PL2,positive,morgue,negative,905,1
1195,1195,1196,6,PH1,positive,arrest,negative,950,1
1196,1196,1197,35,NH1,negative,morgue,negative,1021,1
1197,1197,1198,52,NL1,negative,arrest,negative,933,1
1198,1198,1199,12,PH2,positive,comfy,positive,642,1
1199,1199,1200,21,PL1,positive,morgue,negative,751,1
1200,1200,1201,34,NH1,negative,arrest,negative,639,1
1201,1201,1202,29,PL2,positive,morgue,negative,726,1
1202,1202,1203,11,PH2,positive,relax,positive,650,1
1203,1203,1204,61,NL2,negative,relax,positive,748,1
1204,1204,1205,43,NH2,negative,morgue,negative,734,1
1205,1205,1206,5,PH1,positive,fatal,negative,692,1
1206,1206,1207,51,NL1,negative,fatal,negative,783,1
1207,1207,1208,2,PH1,positive,payday,positive,888,1
1208,1208,1209,20,PL1,positive,payday,positive,651,1
1209,1209,1210,32,PL2,positive,arrest,negative,653,1
1210,1210,1211,26,PL2,positive,comfy,positive,606,1
1211,1211,1212,1,PH1,positive,excite,positive,669,1
1212,1212,1213,17,PL1,positive,relax,positive,1110,1
1213,1213,1214,35,NH1,negative,morgue,negative,808,1
1214,1214,1215,10,PH2,positive,payday,positive,673,1
1215,1215,1216,58,NL2,negative,dismal,negative,958,1
1216,1216,1217,39,NH1,negative,relax,positive,584,1
1217,1217,1218,63,NL2,negative,excite,positive,1058,1
1218,1218,1219,4,PH1,positive,comfy,positive,921,1
1219,1219,1220,50,NL1,negative,dismal,negative,638,1
1220,1220,1221,23,PL1,positive,fatal,negative,836,1
1221,1221,1222,7,PH1,positive,morgue,negative,867,1
1222,1222,1223,52,NL1,negative,arrest,negative,829,1
1223,1223,1224,40,NH1,negative,comfy,positive,725,1
1224,1224,1225,36,NH1,negative,dismal,negative,571,1
1225,1225,1226,64,NL2,negative,payday,positive,569,1
1226,1226,1227,60,NL2,negative,arrest,negative,687,1
1227,1227,1228,6,PH1,positive,arrest,negative,604,1
1228,1228,1229,27,PL2,positive,excite,positive,726,1
1229,1229,1230,30,PL2,positive,dismal,negative,724,1
1230,1230,1231,42,NH2,negative,arrest,negative,518,1
1231,1231,1232,16,PH2,positive,dismal,negative,587,1
1232,1232,1233,33,NH1,negative,fatal,negative,568,1
1233,1233,1234,3,PH1,positive,relax,positive,504,2
1234,1234,1235,24,PL1,positive,arrest,negative,567,1
1235,1235,1236,47,NH2,negative,relax,positive,700,1
1236,1236,1237,55,NL1,negative,excite,positive,1086,1
1237,1237,1238,53,NL1,negative,relax,positive,601,1
1238,1238,1239,9,PH2,positive,excite,positive,682,1
1239,1239,1240,41,NH2,negative,fatal,negative,646,1
1240,1240,1241,56,NL1,negative,payday,positive,736,1
1241,1241,1242,45,NH2,negative,excite,positive,529,1
1242,1242,1243,28,PL2,positive,payday,positive,595,1
1243,1243,1244,48,NH2,negative,comfy,positive,645,1
1244,1244,1245,22,PL1,positive,dismal,negative,542,1
1245,1245,1246,19,PL1,positive,excite,positive,730,1
1246,1246,1247,8,PH1,positive,dismal,negative,553,1
1247,1247,1248,15,PH2,positive,morgue,negative,611,1
1248,1248,1249,59,NL2,negative,fatal,negative,582,1
1249,1249,1250,46,NH2,negative,payday,positive,672,1
1250,1250,1251,49,NL1,negative,morgue,negative,630,1
1251,1251,1252,14,PH2,positive,arrest,negative,607,1
1252,1252,1253,44,NH2,negative,dismal,negative,635,1
1253,1253,1254,38,NH1,negative,payday,positive,925,1
1254,1254,1255,13,PH2,positive,fatal,negative,589,1
1255,1255,1256,37,NH1,negative,excite,positive,605,1
1256,1256,1257,62,NL2,negative,comfy,positive,666,1
1257,1257,1258,31,PL2,positive,fatal,negative,595,1
1258,1258,1259,38,NH1,negative,payday,positive,516,1
1259,1259,1260,20,PL1,positive,payday,positive,484,1
1260,1260,1261,23,PL1,positive,fatal,negative,490,1
1261,1261,1262,9,PH2,positive,excite,positive,523,1
1262,1262,1263,6,PH1,positive,arrest,negative,579,1
1263,1263,1264,37,NH1,negative,excite,positive,440,1
1264,1264,1265,53,NL1,negative,relax,positive,559,1
1265,1265,1266,51,NL1,negative,fatal,negative,477,1
1266,1266,1267,42,NH2,negative,arrest,negative,431,1
1267,1267,1268,59,NL2,negative,fatal,negative,490,1
1268,1268,1269,14,PH2,positive,arrest,negative,513,1
1269,1269,1270,54,NL1,negative,comfy,positive,557,1
1270,1270,1271,30,PL2,positive,dismal,negative,573,1
1271,1271,1272,49,NL1,negative,morgue,negative,549,1
1272,1272,1273,41,NH2,negative,fatal,negative,466,1
1273,1273,1274,16,PH2,positive,dismal,negative,539,1
1274,1274,1275,24,PL1,positive,arrest,negative,532,1
1275,1275,1276,50,NL1,negative,dismal,negative,529,1
1276,1276,1277,64,NL2,negative,payday,positive,528,1
1277,1277,1278,29,PL2,positive,morgue,negative,522,1
1278,1278,1279,47,NH2,negative,relax,positive,480,1
1279,1279,1280,58,NL2,negative,dismal,negative,489,1
1280,1280,1281,46,NH2,negative,payday,positive,511,1
1281,1281,1282,44,NH2,negative,dismal,negative,477,1
1282,1282,1283,39,NH1,negative,relax,positive,443,1
1283,1283,1284,26,PL2,positive,comfy,positive,517,1
1284,1284,1285,8,PH1,positive,dismal,negative,463,1
1285,1285,1286,18,PL1,positive,comfy,positive,514,1
1286,1286,1287,10,PH2,positive,payday,positive,396,1
1287,1287,1288,11,PH2,positive,relax,positive,404,1
1288,1288,1289,43,NH2,negative,morgue,negative,426,1
1289,1289,1290,15,PH2,positive,morgue,negative,582,1
1290,1290,1291,35,NH1,negative,morgue,negative,558,1
1291,1291,1292,62,NL2,negative,comfy,positive,479,1
1292,1292,1293,33,NH1,negative,fatal,negative,452,1
1293,1293,1294,55,NL1,negative,excite,positive,542,1
1294,1294,1295,31,PL2,positive,fatal,negative,558,1
1295,1295,1296,27,PL2,positive,excite,positive,364,1
1296,1296,1297,61,NL2,negative,relax,positive,529,1
1297,1297,1298,40,NH1,negative,comfy,positive,455,1
1298,1298,1299,12,PH2,positive,comfy,positive,506,1
1299,1299,1300,56,NL1,negative,payday,positive,496,1
1300,1300,1301,28,PL2,positive,payday,positive,439,1
1301,1301,1302,7,PH1,positive,morgue,negative,381,2
1302,1302,1303,32,PL2,positive,arrest,negative,578,1
1303,1303,1304,1,PH1,positive,excite,positive,465,1
1304,1304,1305,13,PH2,positive,fatal,negative,496,1
1305,1305,1306,25,PL2,positive,relax,positive,446,1
1306,1306,1307,17,PL1,positive,relax,positive,484,1
1307,1307,1308,19,PL1,positive,excite,positive,453,1
1308,1308,1309,36,NH1,negative,dismal,negative,470,1
1309,1309,1310,63,NL2,negative,excite,positive,490,1
1310,1310,1311,45,NH2,negative,excite,positive,542,1
1311,1311,1312,21,PL1,positive,morgue,negative,538,1
1312,1312,1313,5,PH1,positive,fatal,negative,319,2
1313,1313,1314,48,NH2,negative,comfy,positive,504,1
1314,1314,1315,22,PL1,positive,dismal,negative,496,1
1315,1315,1316,3,PH1,positive,relax,positive,446,1
1316,1316,1317,52,NL1,negative,arrest,negative,548,1
1317,1317,1318,35,NH1,negative,morgue,negative,605,1
1318,1318,1319,11,PH2,positive,relax,positive,606,1
1319,1319,1320,40,NH1,negative,comfy,positive,538,1
1320,1320,1321,32,PL2,positive,arrest,negative,600,1
1321,1321,1322,47,NH2,negative,relax,positive,610,1
1322,1322,1323,28,PL2,positive,payday,positive,710,1
1323,1323,1324,1,PH1,positive,excite,positive,583,1
1324,1324,1325,15,PH2,positive,morgue,negative,526,1
1325,1325,1326,44,NH2,negative,dismal,negative,538,1
1326,1326,1327,30,PL2,positive,dismal,negative,533,1
1327,1327,1328,62,NL2,negative,comfy,positive,601,1
1328,1328,1329,17,PL1,positive,relax,positive,626,1
1329,1329,1330,36,NH1,negative,dismal,negative,551,1
1330,1330,1331,6,PH1,positive,arrest,negative,636,1
1331,1331,1332,46,NH2,negative,payday,positive,644,1
1332,1332,1333,45,NH2,negative,excite,positive,484,1
1333,1333,1334,42,NH2,negative,arrest,negative,618,1
1334,1334,1335,33,NH1,negative,fatal,negative,499,1
1335,1335,1336,59,NL2,negative,fatal,negative,509,1
1336,1336,1337,26,PL2,positive,comfy,positive,590,1
1337,1337,1338,54,NL1,negative,comfy,positive,555,1
1338,1338,1339,16,PH2,positive,dismal,negative,545,1
1339,1339,1340,13,PH2,positive,fatal,negative,493,1
1340,1340,1341,8,PH1,positive,dismal,negative,608,1
1341,1341,1342,63,NL2,negative,excite,positive,580,1
1342,1342,1343,23,PL1,positive,fatal,negative,661,1
1343,1343,1344,10,PH2,positive,payday,positive,698,1
1344,1344,1345,24,PL1,positive,arrest,negative,464,1
1345,1345,1346,3,PH1,positive,relax,positive,572,1
1346,1346,1347,34,NH1,negative,arrest,negative,617,1
1347,1347,1348,61,NL2,negative,relax,positive,609,1
1348,1348,1349,31,PL2,positive,fatal,negative,605,1
1349,1349,1350,18,PL1,positive,comfy,positive,542,1
1350,1350,1351,50,NL1,negative,dismal,negative,630,1
1351,1351,1352,51,NL1,negative,fatal,negative,537,1
1352,1352,1353,39,NH1,negative,relax,positive,564,1
1353,1353,1354,64,NL2,negative,payday,positive,635,1
1354,1354,1355,12,PH2,positive,comfy,positive,609,1
1355,1355,1356,52,NL1,negative,arrest,negative,570,1
1356,1356,1357,7,PH1,positive,morgue,negative,460,1
1357,1357,1358,38,NH1,negative,payday,positive,544,1
1358,1358,1359,25,PL2,positive,relax,positive,493,1
1359,1359,1360,60,NL2,negative,arrest,negative,539,1
1360,1360,1361,14,PH2,positive,arrest,negative,517,1
1361,1361,1362,57,NL2,negative,morgue,negative,458,1
1362,1362,1363,27,PL2,positive,excite,positive,533,1
1363,1363,1364,53,NL1,negative,relax,positive,565,1
1364,1364,1365,29,PL2,positive,morgue,negative,458,1
1365,1365,1366,49,NL1,negative,morgue,negative,508,1
1366,1366,1367,5,PH1,positive,fatal,negative,683,1
1367,1367,1368,22,PL1,positive,dismal,negative,538,1
1368,1368,1369,37,NH1,negative,excite,positive,466,1
1369,1369,1370,20,PL1,positive,payday,positive,519,1
1370,1370,1371,2,PH1,positive,payday,positive,463,1
1371,1371,1372,55,NL1,negative,excite,positive,696,1
1372,1372,1373,58,NL2,negative,dismal,negative,571,1
1373,1373,1374,9,PH2,positive,excite,positive,447,1
1374,1374,1375,43,NH2,negative,morgue,negative,505,1
1375,1375,1376,19,PL1,positive,excite,positive,420,1
1376,1376,1377,21,PL1,positive,morgue,negative,548,1
1377,1377,1378,56,NL1,negative,payday,positive,539,1
1378,1378,1379,52,NL1,negative,arrest,negative,482,1
1379,1379,1380,33,NH1,negative,fatal,negative,530,1
1380,1380,1381,45,NH2,negative,excite,positive,475,1
1381,1381,1382,58,NL2,negative,dismal,negative,563,1
1382,1382,1383,41,NH2,negative,fatal,negative,481,1
1383,1383,1384,4,PH1,positive,comfy,positive,529,1
1384,1384,1385,15,PH2,positive,morgue,negative,582,1
1385,1385,1386,5,PH1,positive,fatal,negative,541,1
1386,1386,1387,26,PL2,positive,comfy,positive,466,1
1387,1387,1388,36,NH1,negative,dismal,negative,558,1
1388,1388,1389,22,PL1,positive,dismal,negative,536,1
1389,1389,1390,2,PH1,positive,payday,positive,513,1
1390,1390,1391,24,PL1,positive,arrest,negative,532,1
1391,1391,1392,60,NL2,negative,arrest,negative,565,1
1392,1392,1393,51,NL1,negative,fatal,negative,530,1
1393,1393,1394,48,NH2,negative,comfy,positive,479,1
1394,1394,1395,6,PH1,positive,arrest,negative,557,1
1395,1395,1396,34,NH1,negative,arrest,negative,549,1
1396,1396,1397,46,NH2,negative,payday,positive,502,1
1397,1397,1398,44,NH2,negative,dismal,negative,551,1
1398,1398,1399,53,NL1,negative,relax,positive,539,1
1399,1399,1400,62,NL2,negative,comfy,positive,487,1
1400,1400,1401,56,NL1,negative,payday,positive,478,1
1401,1401,1402,27,PL2,positive,excite,positive,492,1
1402,1402,1403,39,NH1,negative,relax,positive,488,1
1403,1403,1404,57,NL2,negative,morgue,negative,602,1
1404,1404,1405,14,PH2,positive,arrest,negative,602,1
1405,1405,1406,50,NL1,negative,dismal,negative,611,1
1406,1406,1407,43,NH2,negative,morgue,negative,584,1
1407,1407,1408,55,NL1,negative,excite,positive,490,1
1408,1408,1409,1,PH1,positive,excite,positive,579,1
1409,1409,1410,35,NH1,negative,morgue,negative,566,1
1410,1410,1411,42,NH2,negative,arrest,negative,589,1
1411,1411,1412,31,PL2,positive,fatal,negative,581,1
1412,1412,1413,8,PH1,positive,dismal,negative,526,1
1413,1413,1414,20,PL1,positive,payday,positive,523,1
1414,1414,1415,37,NH1,negative,excite,positive,531,1
1415,1415,1416,47,NH2,negative,relax,positive,572,1
1416,1416,1417,18,PL1,positive,comfy,positive,578,1
1417,1417,1418,29,PL2,positive,morgue,negative,587,1
1418,1418,1419,9,PH2,positive,excite,positive,533,1
1419,1419,1420,54,NL1,negative,comfy,positive,495,1
1420,1420,1421,16,PH2,positive,dismal,negative,506,1
1421,1421,1422,12,PH2,positive,comfy,positive,538,1
1422,1422,1423,40,NH1,negative,comfy,positive,522,1
1423,1423,1424,59,NL2,negative,fatal,negative,552,1
1424,1424,1425,25,PL2,positive,relax,positive,565,1
1425,1425,1426,30,PL2,positive,dismal,negative,505,1
1426,1426,1427,10,PH2,positive,payday,positive,567,1
1427,1427,1428,7,PH1,positive,morgue,negative,554,1
1428,1428,1429,32,PL2,positive,arrest,negative,572,1
1429,1429,1430,49,NL1,negative,morgue,negative,540,1
1430,1430,1431,17,PL1,positive,relax,positive,495,1
1431,1431,1432,11,PH2,positive,relax,positive,474,1
1432,1432,1433,19,PL1,positive,excite,positive,526,1
1433,1433,1434,61,NL2,negative,relax,positive,457,1
1434,1434,1435,23,PL1,positive,fatal,negative,496,1
1435,1435,1436,13,PH2,positive,fatal,negative,532,1
1436,1436,1437,64,NL2,negative,payday,positive,497,1
1437,1437,1438,38,NH1,negative,payday,positive,538,1
1438,1438,1439,21,PL1,positive,morgue,negative,490,1
1439,1439,1440,3,PH1,positive,relax,positive,546,1
1440,1440,1441,52,NL1,negative,arrest,negative,720,1
1441,1441,1442,53,NL1,negative,relax,positive,739,1
1442,1442,1443,49,NL1,negative,morgue,negative,633,1
1443,1443,1444,55,NL1,negative,excite,positive,535,1
1444,1444,1445,40,NH1,negative,comfy,positive,538,1
1445,1445,1446,35,NH1,negative,morgue,negative,670,1
1446,1446,1447,59,NL2,negative,fatal,negative,650,1
1447,1447,1448,57,NL2,negative,morgue,negative,654,1
1448,1448,1449,13,PH2,positive,fatal,negative,445,1
1449,1449,1450,1,PH1,positive,excite,positive,619,1
1450,1450,1451,17,PL1,positive,relax,positive,548,1
1451,1451,1452,8,PH1,positive,dismal,negative,677,1
1452,1452,1453,41,NH2,negative,fatal,negative,618,1
1453,1453,1454,29,PL2,positive,morgue,negative,497,1
1454,1454,1455,19,PL1,positive,excite,positive,492,1
1455,1455,1456,16,PH2,positive,dismal,negative,443,1
1456,1456,1457,25,PL2,positive,relax,positive,522,1
1457,1457,1458,31,PL2,positive,fatal,negative,480,1
1458,1458,1459,63,NL2,negative,excite,positive,534,1
1459,1459,1460,12,PH2,positive,comfy,positive,577,1
1460,1460,1461,14,PH2,positive,arrest,negative,600,1
1461,1461,1462,15,PH2,positive,morgue,negative,426,1
1462,1462,1463,28,PL2,positive,payday,positive,723,1
1463,1463,1464,33,NH1,negative,fatal,negative,504,1
1464,1464,1465,21,PL1,positive,morgue,negative,509,1
1465,1465,1466,24,PL1,positive,arrest,negative,466,1
1466,1466,1467,60,NL2,negative,arrest,negative,416,1
1467,1467,1468,61,NL2,negative,relax,positive,541,1
1468,1468,1469,46,NH2,negative,payday,positive,578,1
1469,1469,1470,3,PH1,positive,relax,positive,524,1
1470,1470,1471,6,PH1,positive,arrest,negative,596,2
1471,1471,1472,44,NH2,negative,dismal,negative,664,1
1472,1472,1473,10,PH2,positive,payday,positive,537,1
1473,1473,1474,56,NL1,negative,payday,positive,566,1
1474,1474,1475,43,NH2,negative,morgue,negative,454,1
1475,1475,1476,62,NL2,negative,comfy,positive,599,1
1476,1476,1477,26,PL2,positive,comfy,positive,557,1
1477,1477,1478,50,NL1,negative,dismal,negative,654,1
1478,1478,1479,48,NH2,negative,comfy,positive,644,1
1479,1479,1480,20,PL1,positive,payday,positive,552,1
1480,1480,1481,23,PL1,positive,fatal,negative,561,1
1481,1481,1482,18,PL1,positive,comfy,positive,512,1
1482,1482,1483,32,PL2,positive,arrest,negative,622,1
1483,1483,1484,27,PL2,positive,excite,positive,462,1
1484,1484,1485,54,NL1,negative,comfy,positive,478,1
1485,1485,1486,36,NH1,negative,dismal,negative,517,1
1486,1486,1487,39,NH1,negative,relax,positive,526,1
1487,1487,1488,22,PL1,positive,dismal,negative,512,1
1488,1488,1489,38,NH1,negative,payday,positive,444,1
1489,1489,1490,34,NH1,negative,arrest,negative,713,1
1490,1490,1491,58,NL2,negative,dismal,negative,577,1
1491,1491,1492,11,PH2,positive,relax,positive,413,1
1492,1492,1493,45,NH2,negative,excite,positive,566,1
1493,1493,1494,7,PH1,positive,morgue,negative,465,1
1494,1494,1495,51,NL1,negative,fatal,negative,469,1
1495,1495,1496,64,NL2,negative,payday,positive,536,1
1496,1496,1497,37,NH1,negative,excite,positive,558,1
1497,1497,1498,30,PL2,positive,dismal,negative,404,1
1498,1498,1499,47,NH2,negative,relax,positive,606,2
1499,1499,1500,2,PH1,positive,payday,positive,546,1
1500,1500,1501,9,PH2,positive,excite,positive,508,1
1501,1501,1502,7,PH1,positive,morgue,negative,652,1
1502,1502,1503,21,PL1,positive,morgue,negative,442,1
1503,1503,1504,48,NH2,negative,comfy,positive,538,1
1504,1504,1505,2,PH1,positive,payday,positive,618,1
1505,1505,1506,23,PL1,positive,fatal,negative,532,1
1506,1506,1507,24,PL1,positive,arrest,negative,476,1
1507,1507,1508,6,PH1,positive,arrest,negative,588,1
1508,1508,1509,60,NL2,negative,arrest,negative,421,1
1509,1509,1510,22,PL1,positive,dismal,negative,448,1
1510,1510,1511,13,PH2,positive,fatal,negative,532,1
1511,1511,1512,10,PH2,positive,payday,positive,544,1
1512,1512,1513,38,NH1,negative,payday,positive,424,1
1513,1513,1514,26,PL2,positive,comfy,positive,499,1
1514,1514,1515,45,NH2,negative,excite,positive,499,1
1515,1515,1516,16,PH2,positive,dismal,negative,511,1
1516,1516,1517,42,NH2,negative,arrest,negative,387,1
1517,1517,1518,12,PH2,positive,comfy,positive,504,1
1518,1518,1519,59,NL2,negative,fatal,negative,532,1
1519,1519,1520,27,PL2,positive,excite,positive,574,1
1520,1520,1521,15,PH2,positive,morgue,negative,557,1
1521,1521,1522,18,PL1,positive,comfy,positive,417,1
1522,1522,1523,30,PL2,positive,dismal,negative,463,1
1523,1523,1524,32,PL2,positive,arrest,negative,557,1
1524,1524,1525,20,PL1,positive,payday,positive,448,1
1525,1525,1526,58,NL2,negative,dismal,negative,435,1
1526,1526,1527,55,NL1,negative,excite,positive,504,1
1527,1527,1528,8,PH1,positive,dismal,negative,510,1
1528,1528,1529,37,NH1,negative,excite,positive,529,1
1529,1529,1530,3,PH1,positive,relax,positive,503,1
1530,1530,1531,35,NH1,negative,morgue,negative,481,1
1531,1531,1532,33,NH1,negative,fatal,negative,396,1
1532,1532,1533,61,NL2,negative,relax,positive,483,1
1533,1533,1534,9,PH2,positive,excite,positive,450,1
1534,1534,1535,51,NL1,negative,fatal,negative,558,1
1535,1535,1536,46,NH2,negative,payday,positive,586,1
1536,1536,1537,41,NH2,negative,fatal,negative,519,1
1537,1537,1538,34,NH1,negative,arrest,negative,462,1
1538,1538,1539,63,NL2,negative,excite,positive,597,1
1539,1539,1540,11,PH2,positive,relax,positive,432,1
1540,1540,1541,52,NL1,negative,arrest,negative,469,1
1541,1541,1542,54,NL1,negative,comfy,positive,387,1
1542,1542,1543,64,NL2,negative,payday,positive,535,1
1543,1543,1544,31,PL2,positive,fatal,negative,501,1
1544,1544,1545,14,PH2,positive,arrest,negative,371,1
1545,1545,1546,5,PH1,positive,fatal,negative,466,1
1546,1546,1547,4,PH1,positive,comfy,positive,411,1
1547,1547,1548,44,NH2,negative,dismal,negative,473,1
1548,1548,1549,56,NL1,negative,payday,positive,474,1
1549,1549,1550,57,NL2,negative,morgue,negative,478,1
1550,1550,1551,40,NH1,negative,comfy,positive,420,1
1551,1551,1552,49,NL1,negative,morgue,negative,512,1
1552,1552,1553,1,PH1,positive,excite,positive,633,1
1553,1553,1554,19,PL1,positive,excite,positive,442,1
1554,1554,1555,29,PL2,positive,morgue,negative,495,1
1555,1555,1556,53,NL1,negative,relax,positive,552,1
1556,1556,1557,43,NH2,negative,morgue,negative,492,1
1557,1557,1558,50,NL1,negative,dismal,negative,441,1
1558,1558,1559,47,NH2,negative,relax,positive,518,1
1559,1559,1560,36,NH1,negative,dismal,negative,590,1
1560,1560,1561,25,PL2,positive,relax,positive,510,1
1561,1561,1562,58,NL2,negative,dismal,negative,603,1
1562,1562,1563,1,PH1,positive,excite,positive,575,1
1563,1563,1564,5,PH1,positive,fatal,negative,562,1
1564,1564,1565,3,PH1,positive,relax,positive,537,1
1565,1565,1566,46,NH2,negative,payday,positive,587,1
1566,1566,1567,10,PH2,positive,payday,positive,486,1
1567,1567,1568,26,PL2,positive,comfy,positive,502,1
1568,1568,1569,11,PH2,positive,relax,positive,520,1
1569,1569,1570,19,PL1,positive,excite,positive,628,1
1570,1570,1571,18,PL1,positive,comfy,positive,471,1
1571,1571,1572,63,NL2,negative,excite,positive,499,1
1572,1572,1573,38,NH1,negative,payday,positive,553,1
1573,1573,1574,2,PH1,positive,payday,positive,442,1
1574,1574,1575,21,PL1,positive,morgue,negative,627,1
1575,1575,1576,16,PH2,positive,dismal,negative,653,1
1576,1576,1577,34,NH1,negative,arrest,negative,476,1
1577,1577,1578,40,NH1,negative,comfy,positive,594,1
1578,1578,1579,43,NH2,negative,morgue,negative,657,1
1579,1579,1580,8,PH1,positive,dismal,negative,692,1
1580,1580,1581,48,NH2,negative,comfy,positive,535,1
1581,1581,1582,25,PL2,positive,relax,positive,647,1
1582,1582,1583,47,NH2,negative,relax,positive,589,1
1583,1583,1584,7,PH1,positive,morgue,negative,590,1
1584,1584,1585,35,NH1,negative,morgue,negative,522,1
1585,1585,1586,56,NL1,negative,payday,positive,625,1
1586,1586,1587,9,PH2,positive,excite,positive,654,2
1587,1587,1588,36,NH1,negative,dismal,negative,636,1
1588,1588,1589,15,PH2,positive,morgue,negative,593,1
1589,1589,1590,27,PL2,positive,excite,positive,644,1
1590,1590,1591,23,PL1,positive,fatal,negative,670,1
1591,1591,1592,52,NL1,negative,arrest,negative,610,1
1592,1592,1593,22,PL1,positive,dismal,negative,518,1
1593,1593,1594,33,NH1,negative,fatal,negative,620,1
1594,1594,1595,31,PL2,positive,fatal,negative,648,1
1595,1595,1596,29,PL2,positive,morgue,negative,573,1
1596,1596,1597,59,NL2,negative,fatal,negative,487,1
1597,1597,1598,24,PL1,positive,arrest,negative,543,1
1598,1598,1599,51,NL1,negative,fatal,negative,479,1
1599,1599,1600,49,NL1,negative,morgue,negative,549,1
1600,1600,1601,44,NH2,negative,dismal,negative,582,1
1601,1601,1602,62,NL2,negative,comfy,positive,589,1
1602,1602,1603,39,NH1,negative,relax,positive,621,1
1603,1603,1604,60,NL2,negative,arrest,negative,667,1
1604,1604,1605,55,NL1,negative,excite,positive,585,2
1605,1605,1606,61,NL2,negative,relax,positive,695,2
1606,1606,1607,53,NL1,negative,relax,positive,645,1
1607,1607,1608,41,NH2,negative,fatal,negative,607,1
1608,1608,1609,64,NL2,negative,payday,positive,577,1
1609,1609,1610,50,NL1,negative,dismal,negative,605,1
1610,1610,1611,54,NL1,negative,comfy,positive,592,1
1611,1611,1612,12,PH2,positive,comfy,positive,556,1
1612,1612,1613,57,NL2,negative,morgue,negative,589,1
1613,1613,1614,45,NH2,negative,excite,positive,622,1
1614,1614,1615,4,PH1,positive,comfy,positive,649,1
1615,1615,1616,28,PL2,positive,payday,positive,563,1
1616,1616,1617,6,PH1,positive,arrest,negative,682,1
1617,1617,1618,37,NH1,negative,excite,positive,596,1
1618,1618,1619,42,NH2,negative,arrest,negative,694,1
1619,1619,1620,13,PH2,positive,fatal,negative,642,1
1620,1620,1621,17,PL1,positive,relax,positive,697,1
1621,1621,1622,38,NH1,negative,payday,positive,900,1
1622,1622,1623,23,PL1,positive,fatal,negative,820,1
1623,1623,1624,19,PL1,positive,excite,positive,759,1
1624,1624,1625,56,NL1,negative,payday,positive,707,1
1625,1625,1626,52,NL1,negative,arrest,negative,664,1
1626,1626,1627,17,PL1,positive,relax,positive,766,1
1627,1627,1628,9,PH2,positive,excite,positive,611,1
1628,1628,1629,60,NL2,negative,arrest,negative,502,1
1629,1629,1630,12,PH2,positive,comfy,positive,719,1
1630,1630,1631,48,NH2,negative,comfy,positive,691,1
1631,1631,1632,35,NH1,negative,morgue,negative,748,1
1632,1632,1633,39,NH1,negative,relax,positive,1063,1
1633,1633,1634,2,PH1,positive,payday,positive,782,1
1634,1634,1635,27,PL2,positive,excite,positive,1100,1
1635,1635,1636,25,PL2,positive,relax,positive,663,1
1636,1636,1637,30,PL2,positive,dismal,negative,722,1
1637,1637,1638,28,PL2,positive,payday,positive,706,1
1638,1638,1639,42,NH2,negative,arrest,negative,708,1
1639,1639,1640,62,NL2,negative,comfy,positive,625,1
1640,1640,1641,20,PL1,positive,payday,positive,666,1
1641,1641,1642,26,PL2,positive,comfy,positive,613,1
1642,1642,1643,5,PH1,positive,fatal,negative,719,1
1643,1643,1644,61,NL2,negative,relax,positive,544,1
1644,1644,1645,34,NH1,negative,arrest,negative,656,1
1645,1645,1646,6,PH1,positive,arrest,negative,692,1
1646,1646,1647,7,PH1,positive,morgue,negative,737,1
1647,1647,1648,63,NL2,negative,excite,positive,630,1
1648,1648,1649,32,PL2,positive,arrest,negative,739,1
1649,1649,1650,4,PH1,positive,comfy,positive,820,1
1650,1650,1651,21,PL1,positive,morgue,negative,571,1
1651,1651,1652,40,NH1,negative,comfy,positive,501,1
1652,1652,1653,10,PH2,positive,payday,positive,816,1
1653,1653,1654,14,PH2,positive,arrest,negative,940,1
1654,1654,1655,64,NL2,negative,payday,positive,733,1
1655,1655,1656,54,NL1,negative,comfy,positive,777,1
1656,1656,1657,46,NH2,negative,payday,positive,900,1
1657,1657,1658,43,NH2,negative,morgue,negative,488,1
1658,1658,1659,11,PH2,positive,relax,positive,510,1
1659,1659,1660,33,NH1,negative,fatal,negative,610,1
1660,1660,1661,53,NL1,negative,relax,positive,605,1
1661,1661,1662,55,NL1,negative,excite,positive,572,1
1662,1662,1663,24,PL1,positive,arrest,negative,626,1
1663,1663,1664,44,NH2,negative,dismal,negative,684,1
1664,1664,1665,3,PH1,positive,relax,positive,745,1
1665,1665,1666,31,PL2,positive,fatal,negative,689,1
1666,1666,1667,15,PH2,positive,morgue,negative,614,1
1667,1667,1668,50,NL1,negative,dismal,negative,706,1
1668,1668,1669,36,NH1,negative,dismal,negative,582,1
1669,1669,1670,49,NL1,negative,morgue,negative,713,1
1670,1670,1671,45,NH2,negative,excite,positive,735,1
1671,1671,1672,51,NL1,negative,fatal,negative,1088,1
1672,1672,1673,13,PH2,positive,fatal,negative,560,1
1673,1673,1674,1,PH1,positive,excite,positive,649,1
1674,1674,1675,59,NL2,negative,fatal,negative,878,1
1675,1675,1676,41,NH2,negative,fatal,negative,407,1
1676,1676,1677,29,PL2,positive,morgue,negative,579,1
1677,1677,1678,18,PL1,positive,comfy,positive,602,1
1678,1678,1679,16,PH2,positive,dismal,negative,629,1
1679,1679,1680,47,NH2,negative,relax,positive,778,1
1680,1680,1681,57,NL2,negative,morgue,negative,626,1
1681,1681,1682,55,NL1,negative,excite,positive,509,1
1682,1682,1683,20,PL1,positive,payday,positive,323,1
1683,1683,1684,22,PL1,positive,dismal,negative,646,1
1684,1684,1685,60,NL2,negative,arrest,negative,824,1
1685,1685,1686,57,NL2,negative,morgue,negative,793,1
1686,1686,1687,16,PH2,positive,dismal,negative,850,1
1687,1687,1688,44,NH2,negative,dismal,negative,714,1
1688,1688,1689,46,NH2,negative,payday,positive,809,2
1689,1689,1690,58,NL2,negative,dismal,negative,742,1
1690,1690,1691,2,PH1,positive,payday,positive,810,1
1691,1691,1692,37,NH1,negative,excite,positive,505,1
1692,1692,1693,12,PH2,positive,comfy,positive,591,1
1693,1693,1694,9,PH2,positive,excite,positive,592,1
1694,1694,1695,5,PH1,positive,fatal,negative,777,1
1695,1695,1696,29,PL2,positive,morgue,negative,722,1
1696,1696,1697,56,NL1,negative,payday,positive,662,1
1697,1697,1698,23,PL1,positive,fatal,negative,726,1
1698,1698,1699,13,PH2,positive,fatal,negative,408,2
1699,1699,1700,28,PL2,positive,payday,positive,639,1
1700,1700,1701,64,NL2,negative,payday,positive,944,1
1701,1701,1702,38,NH1,negative,payday,positive,825,1
1702,1702,1703,17,PL1,positive,relax,positive,930,1
1703,1703,1704,61,NL2,negative,relax,positive,709,1
1704,1704,1705,31,PL2,positive,fatal,negative,723,1
1705,1705,1706,59,NL2,negative,fatal,negative,633,1
1706,1706,1707,52,NL1,negative,arrest,negative,923,1
1707,1707,1708,53,NL1,negative,relax,positive,490,1
1708,1708,1709,54,NL1,negative,comfy,positive,627,1
1709,1709,1710,27,PL2,positive,excite,positive,667,1
1710,1710,1711,34,NH1,negative,arrest,negative,794,1
1711,1711,1712,42,NH2,negative,arrest,negative,600,1
1712,1712,1713,41,NH2,negative,fatal,negative,629,1
1713,1713,1714,8,PH1,positive,dismal,negative,636,1
1714,1714,1715,51,NL1,negative,fatal,negative,551,1
1715,1715,1716,30,PL2,positive,dismal,negative,658,1
1716,1716,1717,35,NH1,negative,morgue,negative,750,1
1717,1717,1718,32,PL2,positive,arrest,negative,886,1
1718,1718,1719,48,NH2,negative,comfy,positive,688,1
1719,1719,1720,33,NH1,negative,fatal,negative,833,1
1720,1720,1721,1,PH1,positive,excite,positive,688,1
1721,1721,1722,3,PH1,positive,relax,positive,614,1
1722,1722,1723,21,PL1,positive,morgue,negative,665,1
1723,1723,1724,15,PH2,positive,morgue,negative,587,1
1724,1724,1725,11,PH2,positive,relax,positive,586,1
1725,1725,1726,40,NH1,negative,comfy,positive,715,1
1726,1726,1727,19,PL1,positive,excite,positive,598,1
1727,1727,1728,6,PH1,positive,arrest,negative,634,1
1728,1728,1729,26,PL2,positive,comfy,positive,713,1
1729,1729,1730,36,NH1,negative,dismal,negative,587,1
1730,1730,1731,14,PH2,positive,arrest,negative,565,1
1731,1731,1732,45,NH2,negative,excite,positive,613,1
1732,1732,1733,25,PL2,positive,relax,positive,649,2
1733,1733,1734,63,NL2,negative,excite,positive,833,1
1734,1734,1735,18,PL1,positive,comfy,positive,585,1
1735,1735,1736,50,NL1,negative,dismal,negative,603,1
1736,1736,1737,4,PH1,positive,comfy,positive,834,1
1737,1737,1738,49,NL1,negative,morgue,negative,585,1
1738,1738,1739,10,PH2,positive,payday,positive,615,1
1739,1739,1740,43,NH2,negative,morgue,negative,606,1
1740,1740,1741,39,NH1,negative,relax,positive,599,2
1741,1741,1742,53,NL1,negative,relax,positive,726,2
1742,1742,1743,4,PH1,positive,comfy,positive,721,2
1743,1743,1744,14,PH2,positive,arrest,negative,747,1
1744,1744,1745,11,PH2,positive,relax,positive,500,1
1745,1745,1746,50,NL1,negative,dismal,negative,617,1
1746,1746,1747,60,NL2,negative,arrest,negative,694,1
1747,1747,1748,32,PL2,positive,arrest,negative,390,1
1748,1748,1749,6,PH1,positive,arrest,negative,387,1
1749,1749,1750,13,PH2,positive,fatal,negative,479,1
1750,1750,1751,10,PH2,positive,payday,positive,777,1
1751,1751,1752,12,PH2,positive,comfy,positive,448,1
1752,1752,1753,17,PL1,positive,relax,positive,1106,1
1753,1753,1754,30,PL2,positive,dismal,negative,525,1
1754,1754,1755,8,PH1,positive,dismal,negative,388,1
1755,1755,1756,40,NH1,negative,comfy,positive,770,1
1756,1756,1757,20,PL1,positive,payday,positive,479,1
1757,1757,1758,52,NL1,negative,arrest,negative,563,1
1758,1758,1759,45,NH2,negative,excite,positive,747,1
1759,1759,1760,58,NL2,negative,dismal,negative,642,1
1760,1760,1761,59,NL2,negative,fatal,negative,404,1
1761,1761,1762,37,NH1,negative,excite,positive,406,1
1762,1762,1763,55,NL1,negative,excite,positive,494,1
1763,1763,1764,64,NL2,negative,payday,positive,557,1
1764,1764,1765,62,NL2,negative,comfy,positive,481,1
1765,1765,1766,42,NH2,negative,arrest,negative,532,1
1766,1766,1767,46,NH2,negative,payday,positive,580,1
1767,1767,1768,3,PH1,positive,relax,positive,913,2
1768,1768,1769,48,NH2,negative,comfy,positive,852,1
1769,1769,1770,5,PH1,positive,fatal,negative,586,1
1770,1770,1771,19,PL1,positive,excite,positive,692,2
1771,1771,1772,43,NH2,negative,morgue,negative,677,1
1772,1772,1773,33,NH1,negative,fatal,negative,495,1
1773,1773,1774,26,PL2,positive,comfy,positive,546,1
1774,1774,1775,7,PH1,positive,morgue,negative,568,1
1775,1775,1776,61,NL2,negative,relax,positive,805,1
1776,1776,1777,9,PH2,positive,excite,positive,958,1
1777,1777,1778,39,NH1,negative,relax,positive,525,1
1778,1778,1779,31,PL2,positive,fatal,negative,588,1
1779,1779,1780,22,PL1,positive,dismal,negative,743,2
1780,1780,1781,28,PL2,positive,payday,positive,594,2
1781,1781,1782,51,NL1,negative,fatal,negative,693,1
1782,1782,1783,23,PL1,positive,fatal,negative,559,1
1783,1783,1784,63,NL2,negative,excite,positive,539,1
1784,1784,1785,41,NH2,negative,fatal,negative,509,1
1785,1785,1786,18,PL1,positive,comfy,positive,670,1
1786,1786,1787,21,PL1,positive,morgue,negative,366,2
1787,1787,1788,34,NH1,negative,arrest,negative,471,1
1788,1788,1789,36,NH1,negative,dismal,negative,394,1
1789,1789,1790,24,PL1,positive,arrest,negative,432,1
1790,1790,1791,47,NH2,negative,relax,positive,535,1
1791,1791,1792,56,NL1,negative,payday,positive,490,2
1792,1792,1793,25,PL2,positive,relax,positive,400,2
1793,1793,1794,15,PH2,positive,morgue,negative,535,1
1794,1794,1795,27,PL2,positive,excite,positive,624,2
1795,1795,1796,2,PH1,positive,payday,positive,819,1
1796,1796,1797,54,NL1,negative,comfy,positive,505,1
1797,1797,1798,44,NH2,negative,dismal,negative,827,1
1798,1798,1799,5,PH1,positive,fatal,negative,646,1
1799,1799,1800,58,NL2,negative,dismal,negative,605,1
1800,1800,1801,39,NH1,negative,relax,positive,499,1
1801,1801,1802,34,NH1,negative,arrest,negative,686,1
1802,1802,1803,29,PL2,positive,morgue,negative,528,1
1803,1803,1804,61,NL2,negative,relax,positive,483,1
1804,1804,1805,19,PL1,positive,excite,positive,541,1
1805,1805,1806,48,NH2,negative,comfy,positive,606,1
1806,1806,1807,63,NL2,negative,excite,positive,508,1
1807,1807,1808,54,NL1,negative,comfy,positive,565,1
1808,1808,1809,25,PL2,positive,relax,positive,342,1
1809,1809,1810,41,NH2,negative,fatal,negative,520,1
1810,1810,1811,51,NL1,negative,fatal,negative,539,1
1811,1811,1812,45,NH2,negative,excite,positive,456,1
1812,1812,1813,18,PL1,positive,comfy,positive,514,1
1813,1813,1814,20,PL1,positive,payday,positive,683,1
1814,1814,1815,30,PL2,positive,dismal,negative,469,1
1815,1815,1816,60,NL2,negative,arrest,negative,462,1
1816,1816,1817,56,NL1,negative,payday,positive,622,1
1817,1817,1818,24,PL1,positive,arrest,negative,630,1
1818,1818,1819,47,NH2,negative,relax,positive,499,1
1819,1819,1820,42,NH2,negative,arrest,negative,517,1
1820,1820,1821,9,PH2,positive,excite,positive,340,1
1821,1821,1822,14,PH2,positive,arrest,negative,469,2
1822,1822,1823,50,NL1,negative,dismal,negative,516,1
1823,1823,1824,44,NH2,negative,dismal,negative,542,1
1824,1824,1825,37,NH1,negative,excite,positive,533,2
1825,1825,1826,21,PL1,positive,morgue,negative,518,1
1826,1826,1827,33,NH1,negative,fatal,negative,501,1
1827,1827,1828,27,PL2,positive,excite,positive,756,1
1828,1828,1829,40,NH1,negative,comfy,positive,636,1
1829,1829,1830,15,PH2,positive,morgue,negative,455,1
1830,1830,1831,16,PH2,positive,dismal,negative,586,1
1831,1831,1832,46,NH2,negative,payday,positive,381,1
1832,1832,1833,35,NH1,negative,morgue,negative,597,1
1833,1833,1834,10,PH2,positive,payday,positive,479,1
1834,1834,1835,38,NH1,negative,payday,positive,429,1
1835,1835,1836,3,PH1,positive,relax,positive,446,1
1836,1836,1837,28,PL2,positive,payday,positive,446,1
1837,1837,1838,22,PL1,positive,dismal,negative,677,1
1838,1838,1839,57,NL2,negative,morgue,negative,563,1
1839,1839,1840,8,PH1,positive,dismal,negative,671,1
1840,1840,1841,1,PH1,positive,excite,positive,404,2
1841,1841,1842,62,NL2,negative,comfy,positive,494,1
1842,1842,1843,64,NL2,negative,payday,positive,574,1
1843,1843,1844,2,PH1,positive,payday,positive,485,1
1844,1844,1845,55,NL1,negative,excite,positive,459,1
1845,1845,1846,23,PL1,positive,fatal,negative,653,1
1846,1846,1847,4,PH1,positive,comfy,positive,527,1
1847,1847,1848,31,PL2,positive,fatal,negative,643,1
1848,1848,1849,32,PL2,positive,arrest,negative,493,1
1849,1849,1850,49,NL1,negative,morgue,negative,726,1
1850,1850,1851,12,PH2,positive,comfy,positive,731,1
1851,1851,1852,53,NL1,negative,relax,positive,523,1
1852,1852,1853,43,NH2,negative,morgue,negative,492,1
1853,1853,1854,6,PH1,positive,arrest,negative,439,1
1854,1854,1855,36,NH1,negative,dismal,negative,598,1
1855,1855,1856,52,NL1,negative,arrest,negative,565,1
1856,1856,1857,59,NL2,negative,fatal,negative,390,1
1857,1857,1858,11,PH2,positive,relax,positive,541,2
1858,1858,1859,7,PH1,positive,morgue,negative,508,2
1859,1859,1860,60,NL2,negative,arrest,negative,871,1
1860,1860,1861,63,NL2,negative,excite,positive,719,1
1861,1861,1862,54,NL1,negative,comfy,positive,842,1
1862,1862,1863,55,NL1,negative,excite,positive,546,1
1863,1863,1864,4,PH1,positive,comfy,positive,567,1
1864,1864,1865,31,PL2,positive,fatal,negative,905,1
1865,1865,1866,38,NH1,negative,payday,positive,954,1
1866,1866,1867,12,PH2,positive,comfy,positive,760,1
1867,1867,1868,21,PL1,positive,morgue,negative,924,2
1868,1868,1869,36,NH1,negative,dismal,negative,630,1
1869,1869,1870,48,NH2,negative,comfy,positive,724,1
1870,1870,1871,33,NH1,negative,fatal,negative,580,1
1871,1871,1872,10,PH2,positive,payday,positive,1124,1
1872,1872,1873,62,NL2,negative,comfy,positive,635,1
1873,1873,1874,8,PH1,positive,dismal,negative,719,1
1874,1874,1875,22,PL1,positive,dismal,negative,803,1
1875,1875,1876,64,NL2,negative,payday,positive,758,2
1876,1876,1877,13,PH2,positive,fatal,negative,796,1
1877,1877,1878,51,NL1,negative,fatal,negative,611,1
1878,1878,1879,52,NL1,negative,arrest,negative,426,1
1879,1879,1880,34,NH1,negative,arrest,negative,563,1
1880,1880,1881,41,NH2,negative,fatal,negative,591,1
1881,1881,1882,37,NH1,negative,excite,positive,383,2
1882,1882,1883,19,PL1,positive,excite,positive,522,1
1883,1883,1884,46,NH2,negative,payday,positive,1003,1
1884,1884,1885,9,PH2,positive,excite,positive,967,1
1885,1885,1886,18,PL1,positive,comfy,positive,595,1
1886,1886,1887,2,PH1,positive,payday,positive,748,1
1887,1887,1888,35,NH1,negative,morgue,negative,561,1
1888,1888,1889,59,NL2,negative,fatal,negative,523,1
1889,1889,1890,49,NL1,negative,morgue,negative,726,1
1890,1890,1891,57,NL2,negative,morgue,negative,517,1
1891,1891,1892,25,PL2,positive,relax,positive,642,1
1892,1892,1893,56,NL1,negative,payday,positive,653,1
1893,1893,1894,30,PL2,positive,dismal,negative,760,2
1894,1894,1895,61,NL2,negative,relax,positive,732,1
1895,1895,1896,11,PH2,positive,relax,positive,590,1
1896,1896,1897,58,NL2,negative,dismal,negative,743,1
1897,1897,1898,5,PH1,positive,fatal,negative,718,1
1898,1898,1899,23,PL1,positive,fatal,negative,538,1
1899,1899,1900,26,PL2,positive,comfy,positive,640,1
1900,1900,1901,7,PH1,positive,morgue,negative,343,2
1901,1901,1902,3,PH1,positive,relax,positive,657,1
1902,1902,1903,45,NH2,negative,excite,positive,822,1
1903,1903,1904,44,NH2,negative,dismal,negative,677,1
1904,1904,1905,1,PH1,positive,excite,positive,661,1
1905,1905,1906,50,NL1,negative,dismal,negative,858,1
1906,1906,1907,47,NH2,negative,relax,positive,564,1
1907,1907,1908,16,PH2,positive,dismal,negative,890,1
1908,1908,1909,42,NH2,negative,arrest,negative,884,1
1909,1909,1910,15,PH2,positive,morgue,negative,600,1
1910,1910,1911,17,PL1,positive,relax,positive,437,2
1911,1911,1912,43,NH2,negative,morgue,negative,534,1
1912,1912,1913,14,PH2,positive,arrest,negative,597,1
1913,1913,1914,40,NH1,negative,comfy,positive,1038,1
1914,1914,1915,24,PL1,positive,arrest,negative,730,1
1915,1915,1916,32,PL2,positive,arrest,negative,505,1
1916,1916,1917,22,PL1,positive,dismal,negative,546,1
1917,1917,1918,51,NL1,negative,fatal,negative,510,1
1918,1918,1919,33,NH1,negative,fatal,negative,452,1
1919,1919,1920,14,PH2,positive,arrest,negative,491,1
1920,1920,1921,63,NL2,negative,excite,positive,460,1
1921,1921,1922,43,NH2,negative,morgue,negative,564,1
1922,1922,1923,23,PL1,positive,fatal,negative,480,1
1923,1923,1924,25,PL2,positive,relax,positive,408,1
1924,1924,1925,54,NL1,negative,comfy,positive,509,1
1925,1925,1926,62,NL2,negative,comfy,positive,459,1
1926,1926,1927,64,NL2,negative,payday,positive,554,2
1927,1927,1928,37,NH1,negative,excite,positive,459,1
1928,1928,1929,13,PH2,positive,fatal,negative,553,1
